"Time (s)","Acceleration x (m/s^2)","Acceleration y (m/s^2)","Acceleration z (m/s^2)"
2.453389350E-1,7.182604820E-2,7.968202591E0,5.178957462E0
2.553389350E-1,4.788403399E-3,7.958625793E0,5.303455830E0
2.653389350E-1,-4.548983276E-2,7.987356186E0,5.377676487E0
2.753389350E-1,-5.267243832E-2,8.063970566E0,5.346551895E0
2.853389350E-1,-5.985504389E-2,8.159738541E0,5.248389244E0
2.953389350E-1,-7.422025502E-2,8.265083313E0,5.049670696E0
3.053389350E-1,-5.506663769E-2,8.265083313E0,4.831499100E0
3.153389350E-1,4.070143029E-2,8.152556419E0,4.604049683E0
3.253389350E-1,-3.112462163E-2,8.004115105E0,4.496310711E0
3.353389350E-1,-1.244984865E-1,7.896376610E0,4.560954094E0
3.453389350E-1,-1.723825186E-1,7.865252018E0,5.028122902E0
3.553389350E-1,1.556231081E-1,7.917924404E0,5.614702225E0
3.653389350E-1,7.110779285E-1,8.207622528E0,5.803843975E0
3.753389350E-1,1.515529633E0,8.684068680E0,5.430348873E0
3.853389350E-1,2.245761156E0,9.292196274E0,4.599261284E0
3.953389350E-1,2.703053713E0,9.699210167E0,3.730166197E0
4.053389350E-1,2.901772499E0,9.919476509E0,3.086126089E0
4.153389350E-1,2.767697096E0,9.885957718E0,2.542642117E0
4.253389350E-1,2.485181332E0,9.596260071E0,2.403778553E0
4.353389350E-1,2.267308950E0,9.146149635E0,2.894589901E0
4.453389350E-1,2.188300371E0,8.765471458E0,3.866635799E0
4.553389350E-1,2.173935175E0,8.356062889E0,4.977844715E0
4.653389350E-1,2.260126352E0,8.059182167E0,6.048052788E0
4.753389350E-1,2.286462545E0,8.035240173E0,6.785466671E0
4.853389350E-1,1.865083098E0,8.116642952E0,6.941090107E0
4.953389350E-1,7.852981687E-1,8.116642952E0,6.450278759E0
5.053389350E-1,1.316810995E-1,7.362469673E0,5.892429829E0
5.153389350E-1,1.508347094E-1,5.997774601E0,4.781220913E0
5.253389350E-1,-5.434837937E-1,5.765536785E0,3.962403774E0
5.353389350E-1,-1.970427990E0,6.605901718E0,3.394978046E0
5.453389690E-1,-3.751713991E0,7.695263386E0,2.973598480E0
5.553389690E-1,-4.783615112E0,7.963414192E0,2.798821688E0
5.653389690E-1,-4.903624535E0,7.477391243E0,2.762908697E0
5.753389690E-1,-3.890577793E0,6.656179905E0,3.469198227E0
5.853389690E-1,-3.004723072E0,6.016928196E0,4.077325344E0
5.953389690E-1,-2.822763920E0,5.605125427E0,5.061641693E0
6.053389690E-1,-2.858676910E0,5.190928459E0,5.585971832E0
6.153389690E-1,-2.719813108E0,4.637568474E0,5.755959988E0
6.253389690E-1,-2.521094322E0,4.132391930E0,5.808632374E0
6.353389690E-1,-2.171540976E0,3.629609823E0,5.600337029E0
6.453389690E-1,-1.520318031E0,3.272873640E0,5.236418247E0
6.553389690E-1,-7.757213712E-1,2.770091295E0,4.771644115E0
6.653389690E-1,-2.394201756E-1,2.123656988E0,3.754108191E0
6.753382690E-1,9.576806426E-2,1.673547029E0,3.112462282E0
6.853374020E-1,7.757213712E-1,1.503558636E0,2.760514498E0
6.953369020E-1,2.025494576E0,1.958456993E0,3.991134167E0
7.053364020E-1,2.877830505E0,2.511517525E0,4.611232281E0
7.153359020E-1,3.986345768E0,2.782062292E0,4.625597477E0
7.253354350E-1,5.597942829E0,2.501940727E0,3.916913986E0
7.353349350E-1,7.166144848E0,1.977610588E0,1.977610588E0
7.453349010E-1,8.205228806E0,1.697489023E0,3.734954596E-1
7.553348670E-1,9.320926666E0,1.649604917E0,-8.930372596E-1
7.653349000E-1,1.064492035E1,1.357512355E0,-1.297657371E0
7.753349000E-1,1.142064095E1,1.209071875E0,-1.175553083E0
7.853348660E-1,1.152598667E1,1.312022567E0,-6.057330370E-1
7.953348990E-1,1.137515163E1,1.489193439E0,1.532289088E-1
8.053348990E-1,1.114291382E1,1.572990537E0,8.475474119E-1
8.153348650E-1,1.096813679E1,1.474828243E0,1.556231141E0
8.253348310E-1,1.108305931E1,1.261744261E0,2.298433542E0
8.353347970E-1,1.137515163E1,1.024718285E0,2.985569477E0
8.453347630E-1,1.149246788E1,8.738836050E-1,3.490746021E0
8.553347630E-1,1.145176601E1,7.541735172E-1,3.928884983E0
8.653347290E-1,1.152838039E1,5.817909837E-1,4.455609322E0
8.753347290E-1,1.209820080E1,1.867477298E-1,5.392041683E0
8.853347290E-1,1.243817711E1,-2.394201756E-1,6.151003361E0
8.953346950E-1,1.243099403E1,-5.722141862E-1,6.526893139E0
9.053346950E-1,1.229691887E1,-8.212111592E-1,6.625055313E0
9.153346610E-1,1.205031681E1,-1.098938584E0,6.421548367E0
9.253346610E-1,1.149246788E1,-1.316810966E0,5.911583424E0
9.353346610E-1,1.073829365E1,-1.422155857E0,5.413589478E0
9.453346270E-1,9.107842445E0,-1.350329757E0,4.946720123E0
9.553346270E-1,8.037634850E0,-1.450886250E0,5.152621269E0
9.653346270E-1,1.009185982E1,-2.669534922E0,9.854833603E0
9.753346270E-1,1.029776096E1,-3.632004023E0,1.048690319E1
9.853354930E-1,9.641749382E0,-4.326322556E0,8.858845711E0
9.953352930E-1,9.273042679E0,-4.985027313E0,7.762300968E0
1.005335126E0,9.012074471E0,-5.334580898E0,7.099107265E0
1.015336592E0,8.154950142E0,-3.181894064E0,2.082297134E1
1.025336358E0,5.483021259E0,-3.375824451E0,1.902971458E1
1.035336858E0,9.601048470E0,-6.560112834E-1,2.486947060E1
1.045336224E0,8.696040154E0,-6.703764796E-1,2.089240265E1
1.350941423E0,-6.129156351E-1,7.819762230E0,5.061641693E0
1.360942423E0,-7.757213712E-1,8.183680534E0,4.953902721E0
1.370941423E0,-6.512228847E-1,8.401553154E0,4.975450516E0
1.380941423E0,-3.327940404E-1,8.250718117E0,5.083189487E0
1.390941423E0,-1.651999205E-1,7.963414192E0,5.190928459E0
1.400941173E0,-1.867477298E-1,7.714416981E0,5.195716858E0
1.410941173E0,-4.716577232E-1,7.901165009E0,5.188534260E0
1.420941173E0,-5.961562395E-1,8.171710014E0,5.193322659E0
1.430941173E0,-6.129156351E-1,8.372822762E0,5.243600845E0
1.440941048E0,-4.237737060E-1,8.332120895E0,5.301061630E0
1.450940936E0,-2.681505978E-1,8.121431351E0,5.267542839E0
1.460940936E0,-3.208230138E-1,8.056788445E0,5.188534260E0
1.470940936E0,-3.160346150E-1,8.095095634E0,5.183745861E0
1.480940852E0,-2.537853718E-1,8.073547363E0,5.257966042E0
1.490940852E0,-2.849099934E-1,7.984961987E0,5.341763496E0
1.500940852E0,-4.572925270E-1,8.063970566E0,5.301061630E0
1.510940785E0,-6.607996821E-1,8.437465668E0,5.164592266E0
1.520940722E0,-5.602431893E-1,8.684068680E0,5.140650272E0
1.530940663E0,-2.657563984E-1,8.473379135E0,5.198111057E0
1.540940663E0,2.394201607E-2,7.963414192E0,5.234024048E0
1.550940610E0,-7.422025502E-2,7.712022781E0,5.243600845E0
1.560940560E0,-4.070142806E-1,7.867646217E0,5.064035892E0
1.570940560E0,-6.488286853E-1,8.250718117E0,5.092766285E0
1.580940560E0,-6.177040339E-1,8.595483780E0,5.126285076E0
1.590940516E0,-5.363011956E-1,8.674491882E0,5.195716858E0
1.600940474E0,-4.237737060E-1,8.482955933E0,5.174169064E0
1.610940514E0,-3.830722570E-1,8.310573578E0,5.083189487E0
1.620939744E0,-3.280056417E-1,8.217199326E0,5.025728703E0
1.630938966E0,-2.777273953E-1,8.032846451E0,5.087977886E0
1.640938966E0,-1.891419291E-1,7.905953407E0,5.152621269E0
1.650938276E0,-2.849099934E-1,7.898770809E0,5.104737282E0
1.660937376E0,-6.272808313E-1,8.315361977E0,5.174169064E0
1.670936709E0,-6.512228847E-1,8.784625053E0,5.399224281E0
1.680936009E0,-2.657563984E-1,8.662521362E0,5.636250019E0
1.690935875E0,-3.591302410E-2,8.131008148E0,5.614702225E0
1.700935941E0,-1.987187415E-1,7.549217224E0,5.399224281E0
1.710935941E0,-5.578489900E-1,7.649773598E0,5.214870453E0
1.720935707E0,-7.254431248E-1,8.257901192E0,5.080795288E0
1.730935707E0,-6.344634295E-1,8.832509041E0,5.116708279E0
1.740935707E0,-2.059013397E-1,8.842085838E0,5.389647484E0
1.750935707E0,4.788403399E-3,8.552388191E0,5.552453041E0
1.760935673E0,-1.053448766E-1,8.511686325E0,5.423166275E0
1.770935673E0,-2.825157940E-1,8.526051521E0,5.298667431E0
1.780935706E0,-3.495534360E-1,8.396764755E0,5.193322659E0
1.790935672E0,-4.429273009E-1,8.384793282E0,5.329792023E0
1.800935672E0,-5.003881454E-1,8.566753387E0,5.547664642E0
1.810935705E0,-4.548983276E-1,8.832509041E0,5.753565788E0
1.820935705E0,-2.825157940E-1,8.913911819E0,5.758354187E0
1.830935738E0,-8.140286058E-2,8.583512306E0,5.758354187E0
1.840935704E0,-4.309562966E-2,8.049605370E0,5.794267178E0
1.850935737E0,-2.753331959E-1,7.800608635E0,5.629067421E0
1.860935770E0,-5.698199868E-1,8.193257332E0,5.325003624E0
1.870935736E0,-4.716577232E-1,8.820538521E0,5.176563263E0
1.880935736E0,-1.987187415E-1,8.813355446E0,5.195716858E0
1.890935769E0,-1.604115069E-1,8.334515572E0,5.253177643E0
1.900935769E0,-4.261679053E-1,8.080730438E0,5.178957462E0
1.910935702E0,-7.278373241E-1,8.243535995E0,5.131073475E0
1.920936335E0,-5.937620401E-1,8.478167534E0,5.320215225E0
1.930937068E0,-2.082955539E-1,8.279448509E0,5.518934250E0
1.940937034E0,-1.771709323E-1,7.893982410E0,5.456685066E0
1.950937667E0,-5.530605912E-1,7.819762230E0,5.171774864E0
1.960938567E0,-8.858546019E-1,8.195652008E0,4.920383930E0
1.970939267E0,-6.224924326E-1,8.494926453E0,4.951508522E0
1.980939933E0,-1.173158810E-1,8.212410927E0,5.202899456E0
1.990940033E0,7.182604820E-2,7.561188221E0,5.365705490E0
2.000939966E0,-3.136404157E-1,7.340921879E0,5.310638428E0
2.010939966E0,-7.781155705E-1,7.783848763E0,5.202899456E0
2.020940166E0,-9.385270476E-1,8.494926453E0,5.248389244E0
2.030940132E0,-6.799532771E-1,9.007286072E0,5.365705490E0
2.040940165E0,-2.657563984E-1,8.899546623E0,5.425560474E0
2.050940165E0,-1.939303428E-1,8.353669167E0,5.392041683E0
2.060940165E0,-2.753331959E-1,8.028057098E0,5.269937038E0
2.070940131E0,-2.250549644E-1,7.893982410E0,5.257966042E0
2.080940164E0,-7.422025502E-2,7.807791233E0,5.377676487E0
2.090940197E0,-1.292868853E-1,7.846098423E0,5.492598057E0
2.100940163E0,-3.471592367E-1,8.109460831E0,5.485415459E0
2.110940196E0,-5.291185975E-1,8.444648743E0,5.466261864E0
2.120940229E0,-4.333505034E-1,8.480561256E0,5.430348873E0
2.130940195E0,-2.825157940E-1,8.224382401E0,5.404012680E0
2.140940195E0,-2.011129409E-1,7.915530205E0,5.298667431E0
2.150940161E0,-2.226607651E-1,7.642591000E0,5.140650272E0
2.160940161E0,-4.046200812E-1,7.618649006E0,4.982633114E0
2.170940194E0,-6.081272364E-1,7.989750385E0,4.886565685E0
2.180940160E0,-6.296750307E-1,8.291419983E0,4.903624535E0
2.190940160E0,-4.644751251E-1,8.456619263E0,5.040093899E0
2.200940193E0,-3.184288144E-1,8.324938774E0,5.217264652E0
2.210940193E0,-2.849099934E-1,7.999327183E0,5.286696434E0
2.220940226E0,-3.830722570E-1,7.824550629E0,5.289090633E0
2.230940159E0,-5.770025849E-1,7.896376610E0,5.296273232E0
2.240940192E0,-6.200982332E-1,8.104672432E0,5.389647484E0
2.250940225E0,-4.908113480E-1,8.289025307E0,5.502174854E0
2.260940191E0,-3.830722570E-1,8.370428085E0,5.600337029E0
2.270940157E0,-4.572925270E-1,8.461407661E0,5.559635639E0
2.280940157E0,-2.968810201E-1,8.451830864E0,5.545270443E0
2.290940190E0,7.182604820E-2,7.970596790E0,5.521328449E0
2.300940190E0,5.506663769E-2,7.577947617E0,5.404012680E0
2.310940156E0,-2.849099934E-1,7.700051785E0,5.152621269E0
2.320940189E0,-4.908113480E-1,8.243535995E0,4.980238914E0
2.330940222E0,-3.974374831E-1,8.763077736E0,4.922778130E0
2.340940188E0,-1.053448766E-1,8.767866135E0,5.035305500E0
2.350940188E0,-2.633621916E-2,8.475772858E0,5.178957462E0
2.360940254E0,-1.173158810E-1,8.250718117E0,5.250783443E0
2.370940287E0,-1.819593310E-1,8.078335762E0,5.255571842E0
2.380940220E0,-1.699883193E-1,8.001721382E0,5.248389244E0
2.390940186E0,-1.675941199E-1,7.953837395E0,5.303455830E0
2.400940219E0,-2.250549644E-1,8.023268700E0,5.334580898E0
2.410940152E0,-3.663128614E-1,8.360851288E0,5.344157696E0
2.420940118E0,-3.447650373E-1,8.784625053E0,5.341763496E0
2.430940118E0,-5.985504389E-2,8.858845711E0,5.526116848E0
2.440940151E0,7.900865376E-2,8.581118584E0,5.708076000E0
2.450940184E0,-1.388636976E-1,8.231564522E0,5.720046997E0
2.460940150E0,-5.506663918E-1,8.315361977E0,5.650615215E0
2.470940183E0,-6.296750307E-1,8.705616951E0,5.626673222E0
2.480940216E0,-5.434837937E-1,9.069535255E0,5.732017994E0
2.490940216E0,-3.543418646E-1,9.275436401E0,5.923554420E0
2.500940182E0,-1.292868853E-1,9.088688850E0,5.988197803E0
2.510940182E0,-2.873042040E-2,8.710405350E0,5.882853031E0
2.520940182E0,-2.059013397E-1,8.401553154E0,5.748777390E0
2.530940215E0,-2.346317619E-1,8.391976357E0,5.782296181E0
2.540940181E0,-2.394201756E-1,8.461407661E0,5.803843975E0
2.550940181E0,-3.543418646E-1,8.667309761E0,5.868487835E0
2.560940214E0,-3.208230138E-1,8.679280281E0,5.878064632E0
2.570940214E0,-2.489969730E-1,8.372822762E0,5.818209171E0
2.580940247E0,-2.394201756E-1,8.116642952E0,5.660192013E0
2.590940213E0,-2.873041928E-1,7.915530205E0,5.382464886E0
2.600940246E0,-3.136404157E-1,7.884405613E0,5.200505257E0
2.610940279E0,-3.902548850E-1,7.891588211E0,5.087977886E0
2.620939879E0,-4.548983276E-1,7.925107002E0,5.023334503E0
2.630939179E0,-4.764461517E-1,7.994538784E0,4.915595531E0
2.640939212E0,-5.434837937E-1,8.140584946E0,4.824316502E0
2.650938578E0,-3.567360640E-1,8.068758965E0,4.968267918E0
2.660937644E0,-1.053448766E-1,7.594707012E0,5.059247494E0
2.670936744E0,-1.675941199E-1,7.075165272E0,5.020940304E0
2.680936810E0,-3.711012602E-1,6.974608898E0,4.937143326E0
2.690936143E0,-6.631938815E-1,7.285854816E0,4.949114323E0
2.700935443E0,-6.536170840E-1,7.716811180E0,5.025728703E0
2.710935443E0,-4.836287498E-1,8.090307236E0,5.248389244E0
2.720935509E0,-2.394201756E-1,8.063970566E0,5.363311291E0
2.730935575E0,-9.337386489E-2,7.733570576E0,5.241206646E0
2.740935541E0,-2.489969730E-1,7.551611423E0,5.049670696E0
2.750935507E0,-5.770025849E-1,7.616254807E0,4.917989731E0
2.760935540E0,-7.374141216E-1,7.867646217E0,4.939537525E0
2.770935473E0,-7.158663273E-1,8.164526939E0,5.174169064E0
2.780935439E0,-5.770025849E-1,8.370428085E0,5.449502468E0
2.790935405E0,-6.033388376E-1,8.614637375E0,5.902006626E0
2.800935438E0,-5.171475410E-1,8.655338287E0,6.060023785E0
2.810935471E0,-5.315127969E-1,8.518868446E0,6.287472725E0
2.820935437E0,-6.536170840E-1,8.399158478E0,6.404788971E0
2.830935470E0,-7.709329724E-1,8.363245964E0,6.364087582E0
2.840935503E0,-7.781155705E-1,8.370428085E0,6.177339554E0
2.850935469E0,-8.810662031E-1,8.506897926E0,6.316203594E0
2.860935469E0,-9.050082564E-1,8.652944565E0,6.483797550E0
2.870935469E0,-7.517793179E-1,8.638579369E0,6.500556946E0
2.880935469E0,-5.626373887E-1,8.581118584E0,6.390423775E0
2.890935535E0,-5.937620401E-1,8.528446198E0,6.182127953E0
2.900935501E0,-6.129156351E-1,8.332120895E0,5.945102215E0
2.910935501E0,-6.775590777E-1,8.107066154E0,5.755959988E0
2.920935934E0,-7.996633649E-1,8.169315338E0,5.732017994E0
2.930936634E0,-7.086837292E-1,8.346486092E0,5.799055576E0
2.940936600E0,-5.865794420E-1,8.229170799E0,5.947496414E0
2.950937233E0,-6.751648784E-1,7.932289600E0,6.100725174E0
2.960938133E0,-8.978256583E-1,7.882011414E0,6.031293392E0
2.970939033E0,-1.060631394E0,8.008903503E0,5.954679012E0
2.980938966E0,-1.000776291E0,8.059182167E0,6.033687592E0
2.990939666E0,-7.613561153E-1,8.078335762E0,6.167762756E0
3.000940366E0,-7.422025204E-1,8.147768021E0,6.251559734E0
3.010940366E0,-9.002198577E-1,8.308178902E0,6.292261124E0
3.020940299E0,-1.000776291E0,8.329727173E0,6.325780392E0
3.030940232E0,-9.289502501E-1,8.169315338E0,6.340145588E0
3.040940265E0,-8.762778044E-1,7.846098423E0,6.457461357E0
3.050940265E0,-1.046266198E0,7.539640427E0,6.591536522E0
3.060940231E0,-1.297657371E0,7.520486832E0,6.562806129E0
3.070940264E0,-1.403002143E0,7.606678009E0,6.474220753E0
3.080940297E0,-1.400607944E0,7.762300968E0,6.390423775E0
3.090940297E0,-1.060631394E0,7.700051785E0,6.299443722E0
3.100940263E0,-6.631938815E-1,7.283460617E0,6.189310551E0
3.110940296E0,-5.243301988E-1,6.816591740E0,5.732017994E0
3.120940329E0,-6.823474765E-1,6.732794285E0,5.344157696E0
3.130940262E0,-8.738836050E-1,7.044040680E0,5.147832870E0
3.140940228E0,-8.595184088E-1,7.422324657E0,5.293879032E0
3.153544652E0,-8.259995580E-1,7.637802601E0,5.686528206E0
3.163544618E0,-8.834604025E-1,7.678503990E0,5.937919617E0
3.173544618E0,-1.007958889E0,7.695263386E0,6.091148376E0
3.183544584E0,-9.983820915E-1,7.594707012E0,6.052841187E0
3.193544550E0,-8.786720037E-1,7.367258072E0,6.069600582E0
3.203544583E0,-8.164227605E-1,7.197269440E0,6.141426563E0
3.213544549E0,-8.643068075E-1,7.254730225E0,6.095936775E0
3.223544515E0,-9.097966552E-1,7.563582420E0,6.081571579E0
3.233544481E0,-7.685387731E-1,7.846098423E0,6.117484570E0
3.243544514E0,-5.985504389E-1,7.913136005E0,6.218040943E0
3.253544547E0,-3.902548850E-1,7.668927193E0,6.383241177E0
3.263544513E0,-3.854664862E-1,7.278672218E0,6.392817974E0
3.273544546E0,-6.823474765E-1,7.048829079E0,6.189310551E0
3.283544579E0,-9.026140571E-1,7.156568050E0,5.952284813E0
3.293544545E0,-8.858546019E-1,7.465420246E0,5.779901981E0
3.303544511E0,-7.661445141E-1,7.814973831E0,5.767930984E0
3.313544511E0,-4.860229492E-1,7.968202591E0,5.911583424E0
3.323544544E0,-2.705447972E-1,7.903559208E0,5.959467411E0
3.333544577E0,-1.987187415E-1,7.757512569E0,5.794267178E0
3.343544543E0,-2.705447972E-1,7.573159218E0,5.641038418E0
3.353544576E0,-5.171475410E-1,7.630620003E0,5.559635639E0
3.363544609E0,-6.871358752E-1,7.898770809E0,5.612308025E0
3.373544575E0,-6.584054828E-1,8.210017204E0,5.727229595E0
3.383544541E0,-5.602431893E-1,8.399158478E0,5.799055576E0
3.393544574E0,-4.596867263E-1,8.463802338E0,5.851728439E0
3.403544607E0,-3.687070608E-1,8.300996780E0,5.765536785E0
3.413544540E0,-2.154781520E-1,7.972990990E0,5.710470200E0
3.423544540E0,-3.112462163E-1,7.891588211E0,5.614702225E0
3.433544573E0,-4.070142806E-1,8.025663376E0,5.485415459E0
3.443544573E0,-5.386953950E-1,8.162133217E0,5.411195278E0
3.453544539E0,-3.615244627E-1,8.090307236E0,5.329792023E0
3.463544539E0,-2.561795712E-1,7.965808392E0,5.253177643E0
3.473544605E0,-2.609679997E-1,7.793426037E0,5.236418247E0
3.483544638E0,-2.992752194E-1,7.659350395E0,5.219658852E0
3.493544604E0,-5.099649429E-1,7.690474987E0,5.210082054E0
3.503544570E0,-6.009446383E-1,7.814973831E0,5.238812447E0
3.513544603E0,-5.434837937E-1,7.841310024E0,5.492598057E0
3.523544569E0,-4.788403511E-1,7.903559208E0,5.698499203E0
3.533544569E0,-3.208230138E-1,7.937077999E0,5.837363243E0
3.543544535E0,-1.053448766E-1,7.862857819E0,5.928342819E0
3.553544535E0,1.029506698E-1,7.587524414E0,6.000168800E0
3.563544568E0,9.576806799E-3,7.388805866E0,5.870882034E0
3.573544501E0,-2.825157940E-1,7.407959461E0,5.492598057E0
3.583544534E0,-5.817909837E-1,7.585130215E0,5.171774864E0
3.593544567E0,-5.913678408E-1,7.769483566E0,4.884171486E0
3.603544567E0,-5.602431893E-1,7.949048996E0,4.855441093E0
3.613544600E0,-3.208230138E-1,8.056788445E0,5.042488098E0
3.623543900E0,1.197100803E-2,8.056788445E0,5.269937038E0
3.633543233E0,3.711012602E-1,8.078335762E0,5.341763496E0
3.643542399E0,4.285621047E-1,8.190863609E0,5.286696434E0
3.653541699E0,3.208230138E-1,8.511686325E0,5.250783443E0
3.663541732E0,3.303998411E-1,8.889969826E0,5.332186222E0
3.673540898E0,6.081272364E-1,9.184456825E0,5.456685066E0
3.683540764E0,8.978256583E-1,9.361627579E0,5.411195278E0
3.693540730E0,1.000776291E0,9.395146370E0,5.224447250E0
3.703540696E0,1.132457376E0,9.234735489E0,5.008969307E0
3.713540362E0,1.266532660E0,8.976161003E0,4.845864296E0
3.723539662E0,1.158793569E0,8.789413452E0,4.766855717E0
3.733539628E0,9.792284966E-1,8.787019730E0,4.831499100E0
3.743539661E0,8.499416113E-1,8.997709274E0,4.886565685E0
3.753539727E0,8.547300100E-1,9.246706009E0,5.107131481E0
3.763539727E0,9.744400978E-1,9.244312286E0,5.140650272E0
3.773539660E0,1.149216771E0,9.002497673E0,5.090372086E0
3.783539626E0,1.221042871E0,8.626607895E0,4.800374508E0
3.793539659E0,9.792284966E-1,8.399158478E0,4.572925091E0
3.803539659E0,7.230489254E-1,8.490138054E0,4.544194698E0
3.813539625E0,6.560112834E-1,8.877999306E0,4.709394932E0
3.823539691E0,8.762778044E-1,9.158121109E0,4.985027313E0
3.833539724E0,1.149216771E0,9.155726433E0,5.107131481E0
3.843539724E0,1.331176162E0,8.827720642E0,5.011363506E0
3.853539690E0,1.101332784E0,8.377611160E0,4.819528103E0
3.863539723E0,8.499416113E-1,8.219594002E0,4.709394932E0
3.873539756E0,6.751648784E-1,8.444648743E0,4.606443882E0
3.883539689E0,7.709329724E-1,8.803778648E0,4.568136692E0
3.893539655E0,1.012747288E0,9.004891396E0,4.508281708E0
3.903539688E0,1.048660398E0,8.992920876E0,4.412513733E0
3.913539654E0,1.307234168E0,8.736741066E0,4.177882195E0
3.923540320E0,1.369483352E0,8.456619263E0,4.034229755E0
3.933540953E0,1.266532660E0,8.121431351E0,2.686294317E0
3.943541819E0,1.302445769E0,8.202834129E0,3.545812607E0
3.953542519E0,1.592144132E0,8.202834129E0,4.108449936E0
3.963542452E0,1.352723956E0,8.317755699E0,4.350264549E0
3.973543318E0,1.031900883E0,8.482955933E0,4.280832767E0
3.983543451E0,1.134851575E0,8.717587471E0,4.338293552E0
3.993543484E0,1.438915253E0,8.887576103E0,4.357447147E0
4.003543517E0,1.704671621E0,8.700828552E0,4.125209332E0
4.013543850E0,1.936909199E0,8.363245964E0,4.309563160E0
4.023544550E0,1.754949808E0,8.303390503E0,4.659116745E0
4.033544583E0,1.151610970E0,8.485349655E0,4.759673119E0
4.043544549E0,7.613561153E-1,8.775048256E0,4.757278919E0
4.053544482E0,9.768342972E-1,8.798990250E0,4.685452938E0
4.063544482E0,1.091755986E0,8.796596527E0,4.819528103E0
4.073544515E0,1.417367458E0,8.569147110E0,5.056853294E0
4.083544548E0,1.242590666E0,8.418312073E0,4.996998310E0
4.093544514E0,7.661445141E-1,8.413523674E0,4.752490520E0
4.103544547E0,4.620809257E-1,8.571541786E0,4.659116745E0
4.113544580E0,5.458779931E-1,8.554781914E0,4.448426723E0
4.123544513E0,6.272808313E-1,8.459013939E0,4.419696331E0
4.133544479E0,6.200982332E-1,8.300996780E0,4.647145271E0
4.143544479E0,3.663128614E-1,8.102277756E0,4.915595531E0
4.153544512E0,-1.125274822E-1,7.903559208E0,5.061641693E0
4.163544445E0,-5.530605912E-1,7.831733227E0,5.064035892E0
4.173544445E0,-9.504981041E-1,7.992144585E0,5.159803867E0
4.183544511E0,-1.012747288E0,8.221987724E0,5.346551895E0
4.193544511E0,-8.283938169E-1,8.293813705E0,5.700893402E0
4.203544477E0,-6.272808313E-1,8.289025307E0,5.949890614E0
4.213544477E0,-4.429273009E-1,8.171710014E0,6.215646744E0
4.223544543E0,-4.836287498E-1,8.075942039E0,6.215646744E0
4.233544576E0,-4.381389022E-1,7.913136005E0,6.237194538E0
4.243544542E0,-5.626373887E-1,7.867646217E0,6.232406139E0
4.253544508E0,-7.661445141E-1,8.011298180E0,6.208464146E0
4.263544541E0,-7.326257229E-1,8.190863609E0,6.088754177E0
4.273544507E0,-6.607996821E-1,8.372822762E0,5.839757442E0
4.283544507E0,-5.722141862E-1,8.482955933E0,5.545270443E0
4.293544473E0,-3.926490843E-1,8.451830864E0,5.463867664E0
4.303544473E0,-1.292868853E-1,8.224382401E0,5.538087845E0
4.313544506E0,0.000000000E0,7.882011414E0,5.679345608E0
4.323544472E0,-2.082955539E-1,7.865252018E0,5.669768810E0
4.333544505E0,-6.416460276E-1,8.360851288E0,5.619490623E0
4.343544538E0,-7.326257229E-1,8.830115318E0,5.612308025E0
4.353544538E0,-5.243301988E-1,8.885181427E0,5.803843975E0
4.363544571E0,-1.963245422E-1,8.528446198E0,5.981015205E0
4.373544537E0,1.915361360E-2,7.937077999E0,6.028899193E0
4.383544537E0,-1.532289088E-1,7.690474987E0,5.784690380E0
4.393544603E0,-6.560112834E-1,8.097489357E0,5.514145851E0
4.403544569E0,-8.188169599E-1,8.559570312E0,5.447108269E0
4.413544569E0,-5.123591423E-1,8.660126686E0,5.614702225E0
4.423544602E0,-1.867477298E-1,8.329727173E0,5.734412193E0
4.433544602E0,-7.661445439E-2,7.841310024E0,5.655403614E0
4.443544602E0,-2.202665508E-1,7.640196800E0,5.478232861E0
4.453544568E0,-4.189853072E-1,7.688080788E0,5.363311291E0
4.463544601E0,-4.836287498E-1,7.824550629E0,5.399224281E0
4.473544601E0,-4.860229492E-1,8.006509781E0,5.394435883E0
4.483544534E0,-4.405331016E-1,8.028057098E0,5.346551895E0
4.493544567E0,-4.237737060E-1,7.934683800E0,5.274725437E0
4.503544600E0,-4.022258818E-1,7.877223015E0,5.250783443E0
4.513544600E0,-3.998316824E-1,7.774271965E0,5.317821026E0
4.523544533E0,-4.812345505E-1,7.712022781E0,5.356128693E0
4.533544499E0,-6.105214357E-1,7.800608635E0,5.435137272E0
4.543544532E0,-6.224924326E-1,7.984961987E0,5.487809658E0
4.553544532E0,-4.932055473E-1,8.147768021E0,5.554847240E0
4.563544498E0,-4.165911078E-1,8.336909294E0,5.614702225E0
4.573544531E0,-3.998316824E-1,8.549993515E0,5.660192013E0
4.583544564E0,-2.801215947E-1,8.600272179E0,5.674557209E0
4.593544564E0,-4.070143029E-2,8.336909294E0,5.734412193E0
4.603544530E0,2.154781483E-2,7.972990990E0,5.777507782E0
4.613544563E0,-3.016694188E-1,7.817368031E0,5.684134007E0
4.623543929E0,-6.320692301E-1,8.085518837E0,5.643432617E0
4.633543195E0,-8.858546019E-1,8.674491882E0,5.784690380E0
4.643542295E0,-7.900865674E-1,8.935460091E0,6.052841187E0
4.653541661E0,-3.806780577E-1,8.624214172E0,6.361693382E0
4.663540761E0,-5.506663769E-2,7.994538784E0,6.414365768E0
4.673539894E0,-7.661445439E-2,7.551611423E0,6.174945354E0
4.683539894E0,-4.285621047E-1,7.649773598E0,5.746383190E0
4.693539194E0,-7.110779285E-1,8.126219749E0,5.298667431E0
4.703538660E0,-6.344634295E-1,8.368034363E0,5.207687855E0
4.713538660E0,-5.530605912E-1,8.415918350E0,5.298667431E0
4.723538260E0,-5.315127969E-1,8.327332497E0,5.425560474E0
4.733538326E0,-4.525041282E-1,8.044816971E0,5.578789234E0
4.743538326E0,-3.639186621E-1,7.726387978E0,5.650615215E0
4.753538326E0,-4.764461517E-1,7.558794022E0,5.657797813E0
4.763538292E0,-6.895300746E-1,7.752724171E0,5.593154430E0
4.773538292E0,-7.493851185E-1,8.200440407E0,5.578789234E0
4.783538325E0,-6.464344859E-1,8.449437141E0,5.662586212E0
4.793538291E0,-5.865794420E-1,8.466196060E0,5.712864399E0
4.803538324E0,-5.243301988E-1,8.327332497E0,5.734412193E0
4.813538357E0,-3.830722570E-1,7.898770809E0,5.732017994E0
4.823538357E0,-3.327940404E-1,7.625831604E0,5.684134007E0
4.833538390E0,-6.033388376E-1,7.740753174E0,5.612308025E0
4.843538356E0,-7.876923680E-1,8.195652008E0,5.605125427E0
4.853538389E0,-6.344634295E-1,8.530839920E0,5.710470200E0
4.863538422E0,-5.003881454E-1,8.576330185E0,5.837363243E0
4.873538388E0,-3.136404157E-1,8.576330185E0,5.937919617E0
4.883538354E0,-2.298433632E-1,8.480561256E0,5.940313816E0
4.893538354E0,-1.221042871E-1,8.353669167E0,5.890035629E0
4.903538387E0,-1.508347094E-1,8.308178902E0,5.712864399E0
4.913538320E0,-2.011129409E-1,8.226776123E0,5.535693645E0
4.923538986E0,-3.136404157E-1,8.310573578E0,5.459079266E0
4.933539686E0,-4.309563041E-1,8.588300705E0,5.432743073E0
4.943540552E0,-3.926490843E-1,8.775048256E0,5.499780655E0
4.953541185E0,-1.915361285E-1,8.751106262E0,5.602731228E0
4.963542051E0,2.154781483E-2,8.523657799E0,5.660192013E0
4.973542984E0,4.070143029E-2,8.217199326E0,5.564424038E0
4.983542984E0,-1.340752989E-1,8.186075211E0,5.449502468E0
4.993543617E0,-2.250549644E-1,8.408735275E0,5.305850029E0
5.003544150E0,-2.035071403E-1,8.540416718E0,5.229235649E0
5.013544150E0,-9.576806426E-2,8.552388191E0,5.234024048E0
5.023544550E0,1.316810995E-1,8.312967300E0,5.257966042E0
5.033544483E0,1.077390760E-1,7.903559208E0,5.325003624E0
5.043544483E0,-9.576806426E-2,7.743147373E0,5.341763496E0
5.053544516E0,-2.944868207E-1,7.879617214E0,5.178957462E0
5.063544549E0,-3.471592367E-1,8.097489357E0,5.085583687E0
5.073544515E0,-2.753331959E-1,8.224382401E0,5.073612690E0
5.083544548E0,-1.771709323E-1,8.250718117E0,4.961085320E0
5.093544581E0,1.675941236E-2,8.341697693E0,5.066430092E0
5.103544514E0,2.274491638E-1,8.181286812E0,5.152621269E0
5.113544514E0,3.591302633E-1,7.901165009E0,5.092766285E0
5.123544514E0,2.873041928E-1,7.822156429E0,4.951508522E0
5.133544514E0,5.267243832E-2,7.865252018E0,4.807557106E0
5.143544580E0,-1.795651317E-1,8.109460831E0,4.807557106E0
5.153544546E0,-4.572925270E-1,8.346486092E0,4.304774761E0
5.163544546E0,-1.675941199E-1,8.538022995E0,4.953902721E0
5.173544612E0,2.250549644E-1,8.384793282E0,5.535693645E0
5.183544612E0,2.298433632E-1,8.162133217E0,5.818209171E0
5.193544612E0,5.506663769E-2,8.066365242E0,5.729623795E0
5.203544578E0,-9.576806799E-3,8.277054787E0,5.717652798E0
5.213544611E0,3.423708379E-1,8.619425774E0,5.954679012E0
5.223544611E0,5.147533417E-1,8.700828552E0,5.897218227E0
5.233544577E0,3.160346150E-1,8.511686325E0,5.497386456E0
5.243544610E0,2.633621991E-1,8.217199326E0,5.207687855E0
5.253544643E0,1.723825186E-1,7.975385189E0,4.996998310E0
5.263544643E0,1.747767180E-1,7.937077999E0,5.085583687E0
5.273544576E0,8.858546615E-2,7.975385189E0,5.298667431E0
5.283544542E0,-7.182604820E-2,7.968202591E0,5.399224281E0
5.293544575E0,-3.064578176E-1,8.028057098E0,5.313032627E0
5.303544608E0,-4.213795066E-1,8.241141319E0,5.159803867E0
5.313544574E0,-1.628057212E-1,8.336909294E0,5.004180908E0
5.323544574E0,1.221042871E-1,8.169315338E0,4.989815712E0
5.333544607E0,2.561795712E-1,7.798214436E0,5.011363506E0
5.343544607E0,1.699883193E-1,7.647379398E0,4.906018734E0
5.353544573E0,-1.436520964E-1,7.767089367E0,4.934749126E0
5.363544606E0,-2.298433632E-1,7.970596790E0,4.927566528E0
5.373544639E0,-1.244984865E-1,8.169315338E0,5.035305500E0
5.383544572E0,-4.309562966E-2,8.281843185E0,5.157409668E0
5.393544538E0,5.506663769E-2,8.387187958E0,5.281908035E0
5.403544571E0,2.178723514E-1,8.248324394E0,5.332186222E0
5.413544537E0,3.447650373E-1,7.965808392E0,5.245995045E0
5.423544537E0,3.016694188E-1,7.915530205E0,5.116708279E0
5.433544503E0,5.985504389E-2,8.200440407E0,5.049670696E0
5.443544469E0,1.436521020E-2,8.518868446E0,5.107131481E0
5.453544502E0,1.005564705E-1,8.734347343E0,5.293879032E0
5.463544468E0,1.939303428E-1,8.676886559E0,5.497386456E0
5.473544468E0,3.064578176E-1,8.387187958E0,5.621884823E0
5.483544501E0,3.495534360E-1,8.059182167E0,5.643432617E0
5.493544534E0,2.035071403E-1,7.891588211E0,5.492598057E0
5.503544534E0,-2.873042040E-2,8.147768021E0,5.401618481E0
5.513544500E0,1.436521020E-2,8.595483780E0,5.415983677E0
5.523544500E0,9.337386489E-2,8.813355446E0,5.552453041E0
5.533544533E0,1.005564705E-1,8.863634109E0,5.626673222E0
5.543544499E0,9.337386489E-2,8.736741066E0,5.612308025E0
5.553544499E0,1.029506698E-1,8.406341553E0,5.542876244E0
5.563544532E0,1.484405100E-1,8.121431351E0,5.480627060E0
5.573544532E0,-9.097966552E-2,8.071153641E0,5.473444462E0
5.583544565E0,-2.035071403E-1,8.329727173E0,5.514145851E0
5.593544531E0,-1.819593310E-1,8.693645477E0,5.633855820E0
5.603544531E0,-3.830722719E-2,8.825326920E0,5.703287601E0
5.613544564E0,-1.436521020E-2,8.820538521E0,5.727229595E0
5.623543864E0,7.182605099E-3,8.667309761E0,5.693710804E0
5.633543197E0,1.197100878E-1,8.303390503E0,5.645826817E0
5.643542430E0,2.154781483E-2,7.982567787E0,5.583577633E0
5.653541763E0,-2.561795712E-1,8.016086578E0,5.494992256E0
5.663541696E0,-3.232172430E-1,8.332120895E0,5.483021259E0
5.673540796E0,-1.484405100E-1,8.526051521E0,5.509357452E0
5.683540862E0,-1.675941236E-2,8.480561256E0,5.557241440E0
5.693540195E0,-1.675941236E-2,8.253112793E0,5.451896667E0
5.703540161E0,2.394201700E-3,7.951443195E0,5.348946095E0
5.713540194E0,4.548983276E-2,7.673715591E0,5.243600845E0
5.723540227E0,-4.070143029E-2,7.513304234E0,5.207687855E0
5.733540760E0,-1.604115069E-1,7.542034626E0,5.207687855E0
5.743540726E0,-2.585737705E-1,7.704840183E0,5.205293655E0
5.753540692E0,-3.878606856E-1,8.126219749E0,5.291484833E0
5.763540725E0,-2.849099934E-1,8.315361977E0,5.413589478E0
5.773540658E0,4.788403399E-3,8.085518837E0,5.449502468E0
5.783540624E0,3.351882473E-2,7.716811180E0,5.363311291E0
5.793540590E0,-2.370259613E-1,7.544428825E0,5.183745861E0
5.803540656E0,-3.471592367E-1,7.673715591E0,5.135861874E0
5.813540689E0,-1.316810995E-1,7.795820236E0,5.097554684E0
5.823540655E0,-1.436521020E-2,7.901165009E0,5.169380665E0
5.833540688E0,5.746084079E-2,8.212410927E0,5.200505257E0
5.843540721E0,1.364694983E-1,8.315361977E0,5.200505257E0
5.853540687E0,2.681505978E-1,8.087912560E0,5.202899456E0
5.863540720E0,1.843535304E-1,7.817368031E0,5.164592266E0
5.873540753E0,-1.388636976E-1,7.865252018E0,5.054459095E0
5.883540719E0,-2.418143749E-1,8.095095634E0,5.037699699E0
5.893540719E0,-2.466027737E-1,8.315361977E0,5.109525681E0
5.903540685E0,-9.576806426E-2,8.444648743E0,5.238812447E0
5.913540685E0,8.140286058E-2,8.365639687E0,5.334580898E0
5.923541418E0,1.963245422E-1,8.142979622E0,5.396830082E0
5.933542051E0,2.202665508E-1,7.893982410E0,5.351340294E0
5.943542817E0,2.873042040E-2,7.932289600E0,5.281908035E0
5.953543483E0,-1.795651317E-1,8.200440407E0,5.325003624E0
5.963543516E0,-2.537853718E-1,8.442254066E0,5.404012680E0
5.973544416E0,-2.298433632E-1,8.645761490E0,5.574000835E0
5.983544349E0,-1.484405100E-1,8.526051521E0,5.650615215E0
5.993545049E0,-2.873042040E-2,8.056788445E0,5.609913826E0
6.003545082E0,-7.422025502E-2,7.723993778E0,5.463867664E0
6.013545048E0,-3.016694188E-1,7.783848763E0,5.260360241E0
6.023545048E0,-3.806780577E-1,8.138191223E0,5.193322659E0
6.033544548E0,-1.628057212E-1,8.394370079E0,5.291484833E0
6.043544548E0,-1.915361360E-2,8.413523674E0,5.432743073E0
6.053544548E0,-9.816227108E-2,8.377611160E0,5.571606636E0
6.063544514E0,-1.149216816E-1,8.241141319E0,5.643432617E0
6.073544547E0,-1.604115069E-1,7.951443195E0,5.641038418E0
6.083544580E0,-2.106897533E-1,7.903559208E0,5.538087845E0
6.093544580E0,-2.777273953E-1,8.037634850E0,5.380070686E0
6.103544513E0,-2.561795712E-1,8.260294914E0,5.356128693E0
6.113544546E0,-1.723825186E-1,8.444648743E0,5.372888088E0
6.123544579E0,-1.747767180E-1,8.559570312E0,5.502174854E0
6.133544512E0,-9.576806799E-3,8.499714851E0,5.641038418E0
6.143544478E0,5.985504389E-2,8.243535995E0,5.686528206E0
6.153544511E0,1.197100803E-2,7.956231594E0,5.674557209E0
6.163544444E0,-1.963245422E-1,7.999327183E0,5.655403614E0
6.173544444E0,-2.394201756E-1,8.365639687E0,5.602731228E0
6.183544444E0,-1.675941236E-2,8.542811394E0,5.681739807E0
6.193544477E0,1.340752989E-1,8.526051521E0,5.789478779E0
6.203544543E0,7.182604820E-2,8.322544098E0,5.782296181E0
6.213544543E0,-1.963245422E-1,8.150161743E0,5.729623795E0
6.223544543E0,-3.160346150E-1,8.116642952E0,5.736806393E0
6.233544576E0,-2.394201756E-1,7.913136005E0,5.803843975E0
6.243544576E0,-1.651999205E-1,7.805397034E0,5.834969044E0
6.253544576E0,-2.489969730E-1,7.941866398E0,5.715258598E0
6.263544542E0,-4.381389022E-1,8.473379135E0,5.612308025E0
6.273544542E0,-3.926490843E-1,8.988132477E0,5.528511047E0
6.283544575E0,-1.628057212E-1,8.935460091E0,5.528511047E0
6.293544541E0,6.703764945E-2,8.497321129E0,5.602731228E0
6.303544541E0,9.576806799E-3,8.102277756E0,5.645826817E0
6.313544574E0,-1.747767180E-1,7.896376610E0,5.662586212E0
6.323544540E0,-4.046200812E-1,8.133402824E0,5.736806393E0
6.333544540E0,-2.705447972E-1,8.413523674E0,5.921160221E0
6.343544540E0,-8.619125932E-2,8.391976357E0,6.093542576E0
6.353544573E0,-9.816227108E-2,8.387187958E0,6.086359978E0
6.363544606E0,-2.944868207E-1,8.459013939E0,5.897218227E0
6.373544572E0,-3.711012602E-1,8.533234596E0,5.554847240E0
6.383544572E0,-2.729389966E-1,8.485349655E0,5.418377876E0
6.393544605E0,5.506663769E-2,8.183680534E0,5.183745861E0
6.403544605E0,3.112462163E-2,7.944260597E0,5.147832870E0
6.413544538E0,-1.316810995E-1,8.183680534E0,5.169380665E0
6.423544504E0,-6.224924326E-2,8.384793282E0,5.262754440E0
6.433544537E0,1.484405100E-1,8.272266388E0,5.569212437E0
6.443544537E0,1.268926859E-1,8.040028572E0,5.763142586E0
6.453544503E0,-9.816227108E-2,7.884405613E0,5.720046997E0
6.463544536E0,-3.830722570E-1,7.977779388E0,5.583577633E0
6.473544536E0,-3.495534360E-1,8.236352921E0,5.506963253E0
6.483544536E0,-9.097966552E-2,8.315361977E0,5.506963253E0
6.493544502E0,1.771709323E-1,8.202834129E0,5.607519627E0
6.503544435E0,1.556231081E-1,7.941866398E0,5.607519627E0
6.513544435E0,-1.915361360E-2,7.872434616E0,5.509357452E0
6.523544368E0,-5.506663769E-2,8.020874977E0,5.449502468E0
6.533544334E0,2.873042040E-2,8.207622528E0,5.535693645E0
6.543544367E0,8.619125932E-2,8.281843185E0,5.674557209E0
6.553544367E0,0.000000000E0,8.305785179E0,5.715258598E0
6.563544367E0,-8.140286058E-2,8.370428085E0,5.617096424E0
6.573544333E0,-4.548983276E-2,8.406341553E0,5.456685066E0
6.583544366E0,1.963245422E-1,8.269871712E0,5.389647484E0
6.593544399E0,3.854664862E-1,7.958625793E0,5.365705490E0
6.603544365E0,3.758896589E-1,7.755118370E0,5.303455830E0
6.613544398E0,1.460463107E-1,7.740753174E0,5.229235649E0
6.623543764E0,-4.070143029E-2,8.049605370E0,5.210082054E0
6.633543064E0,1.197100803E-2,8.454225540E0,5.327397823E0
6.643542397E0,1.891419291E-1,8.502109528E0,5.454290867E0
6.653541997E0,1.795651317E-1,8.226776123E0,5.461473465E0
6.663541130E0,2.633621916E-2,8.054393768E0,5.265148640E0
6.673541196E0,-2.633621916E-2,8.102277756E0,5.116708279E0
6.683540796E0,1.316810995E-1,8.166921616E0,5.135861874E0
6.693540796E0,2.896983922E-1,8.131008148E0,5.372888088E0
6.703540162E0,1.628057212E-1,8.262689590E0,5.593154430E0
6.713540162E0,-3.351882473E-2,8.614637375E0,5.834969044E0
6.723539995E0,-6.464344263E-2,8.765471458E0,5.995380402E0
6.733539961E0,6.703764945E-2,8.638579369E0,6.040870190E0
6.743540027E0,1.508347094E-1,8.401553154E0,5.925948620E0
6.753540060E0,2.873042040E-2,8.171710014E0,5.645826817E0
6.763540026E0,-5.506663769E-2,8.214805603E0,5.459079266E0
6.773540059E0,7.182604820E-2,8.315361977E0,5.456685066E0
6.783540092E0,2.082955539E-1,8.360851288E0,5.523722649E0
6.793540092E0,3.878606856E-1,8.296208382E0,5.664980412E0
6.803540125E0,3.256114423E-1,8.119037628E0,5.722441196E0
6.813540091E0,1.747767180E-1,7.889194012E0,5.645826817E0
6.823539457E0,4.788403399E-3,7.735964775E0,5.523722649E0
6.833539490E0,-2.418143749E-1,7.747935772E0,5.404012680E0
6.843539456E0,-3.519476354E-1,7.824550629E0,5.303455830E0
6.853539489E0,-3.830722570E-1,7.963414192E0,5.289090633E0
6.863539522E0,-3.064578176E-1,8.052000046E0,5.293879032E0
6.873539522E0,-2.106897533E-1,8.001721382E0,5.200505257E0
6.883539455E0,-1.963245422E-1,7.877223015E0,5.135861874E0
6.893539421E0,-2.585737705E-1,7.855675220E0,5.080795288E0
6.903539454E0,-2.202665508E-1,7.886799812E0,5.099948883E0
6.913539387E0,-1.268926859E-1,7.769483566E0,5.202899456E0
6.923540020E0,-1.604115069E-1,7.707234383E0,5.336975098E0
6.933540686E0,-2.035071403E-1,7.788637638E0,5.447108269E0
6.943541386E0,-2.011129409E-1,7.970596790E0,5.516540051E0
6.953541786E0,-6.943184882E-2,8.071153641E0,5.595548630E0
6.963542619E0,1.053448766E-1,7.913136005E0,5.698499203E0
6.973542619E0,1.628057212E-1,7.666532993E0,5.643432617E0
6.983543019E0,-6.464344263E-2,7.592312813E0,5.449502468E0
6.993542985E0,-3.136404157E-1,7.956231594E0,5.248389244E0
7.003543618E0,-1.987187415E-1,8.358457565E0,5.143044472E0
7.013543618E0,1.149216816E-1,8.401553154E0,5.102343082E0
7.023543851E0,2.825157940E-1,8.190863609E0,5.107131481E0
7.033543884E0,1.436520964E-1,8.040028572E0,5.159803867E0
7.043543817E0,-1.197100803E-2,8.126219749E0,5.313032627E0
7.053543817E0,-4.836287498E-1,7.893982410E0,4.465186119E0
7.063543850E0,-1.077390760E-1,8.157344818E0,5.729623795E0
7.073543783E0,3.375824392E-1,8.032846451E0,6.028899193E0
7.083543783E0,2.346317619E-1,8.138191223E0,6.325780392E0
7.093543783E0,8.858546615E-2,8.346486092E0,6.301837921E0
7.103543783E0,1.628057212E-1,8.602665901E0,6.064812183E0
7.113543816E0,4.692635238E-1,8.787019730E0,5.724835396E0
7.123544449E0,5.841852427E-1,8.607454300E0,5.392041683E0
7.133544449E0,3.543418646E-1,8.099884033E0,5.217264652E0
7.143544515E0,7.422025502E-2,7.989750385E0,5.315426826E0
7.153544481E0,-3.064578176E-1,8.341697693E0,5.593154430E0
7.163544447E0,-4.596867263E-1,8.576330185E0,5.803843975E0
7.173544447E0,-4.381389022E-1,8.578723907E0,6.139032364E0
7.183544480E0,-3.040636182E-1,8.451830864E0,5.992986202E0
7.193544480E0,-2.418143749E-1,8.135796547E0,5.961861610E0
7.203544446E0,-2.106897533E-1,7.932289600E0,5.811026573E0
7.213544479E0,-4.333505034E-1,7.872434616E0,5.569212437E0
7.223544512E0,-5.961562395E-1,8.071153641E0,5.377676487E0
7.233544512E0,-5.602431893E-1,8.346486092E0,5.336975098E0
7.243544478E0,-4.405331016E-1,8.466196060E0,5.427954674E0
7.253544444E0,-2.873041928E-1,8.334515572E0,5.523722649E0
7.263544477E0,-2.561795712E-1,8.073547363E0,5.528511047E0
7.273544410E0,-3.471592367E-1,7.977779388E0,5.439925671E0
7.283544376E0,-4.453215301E-1,8.162133217E0,5.411195278E0
7.293544409E0,-3.567360640E-1,8.403946877E0,5.506963253E0
7.303544442E0,-2.681505978E-1,8.482955933E0,5.638644218E0
7.313544442E0,-3.160346150E-1,8.547599792E0,5.794267178E0
7.323544375E0,-3.663128614E-1,8.602665901E0,5.858911037E0
7.333544408E0,-3.519476354E-1,8.506897926E0,5.954679012E0
7.343544441E0,-2.633621991E-1,8.183680534E0,5.971438408E0
7.353544407E0,-2.896983922E-1,7.882011414E0,5.904400826E0
7.363544440E0,-3.998316824E-1,8.035240173E0,5.856516838E0
7.373544473E0,-4.165911078E-1,8.518868446E0,5.892429829E0
7.383544439E0,-1.915361285E-1,8.724770546E0,5.973832607E0
7.393544439E0,-4.788403399E-3,8.492532730E0,5.997774601E0
7.403544405E0,-1.125274822E-1,8.224382401E0,5.875670433E0
7.413544405E0,-4.070142806E-1,8.119037628E0,5.664980412E0
7.423544438E0,-4.979939461E-1,8.162133217E0,5.590760231E0
7.433544404E0,-3.256114423E-1,8.054393768E0,5.664980412E0
7.443544370E0,-2.561795712E-1,7.922712803E0,5.763142586E0
7.453544403E0,-2.178723514E-1,7.893982410E0,5.839757442E0
7.463544403E0,-2.801215947E-1,7.951443195E0,5.837363243E0
7.473544436E0,-3.256114423E-1,8.061576843E0,5.779901981E0
7.483544402E0,-2.968810201E-1,8.092700958E0,5.724835396E0
7.493544435E0,-1.891419291E-1,7.996932983E0,5.633855820E0
7.503544468E0,-1.915361285E-1,7.884405613E0,5.511751652E0
7.513544434E0,-3.663128614E-1,7.961019993E0,5.368099689E0
7.523544434E0,-3.998316824E-1,8.207622528E0,5.399224281E0
7.533544467E0,-2.920926213E-1,8.265083313E0,5.526116848E0
7.543544467E0,-1.843535304E-1,8.214805603E0,5.662586212E0
7.553544467E0,-1.316810995E-1,7.951443195E0,5.705681801E0
7.563544433E0,-1.029506698E-1,7.733570576E0,5.660192013E0
7.573544466E0,-7.182604820E-2,7.719205379E0,5.576395035E0
7.583544499E0,-1.340752989E-1,7.987356186E0,5.540482044E0
7.593544465E0,-1.963245422E-1,8.514080048E0,5.605125427E0
7.603544465E0,-1.173158810E-1,8.806173325E0,5.688922405E0
7.613544498E0,9.576806426E-2,8.669703484E0,5.741594791E0
7.623543831E0,9.576806426E-2,8.202834129E0,5.676951408E0
7.633543097E0,-7.900865376E-2,7.843704224E0,5.473444462E0
7.643543097E0,-2.106897533E-1,7.814973831E0,5.396830082E0
7.653542463E0,-2.370259613E-1,8.231564522E0,5.506963253E0
7.663541529E0,-4.788403213E-2,8.451830864E0,5.581183434E0
7.673541529E0,1.364694983E-1,8.310573578E0,5.743988991E0
7.683541562E0,2.394201700E-3,8.190863609E0,5.743988991E0
7.693541195E0,-2.777273953E-1,8.226776123E0,5.550058842E0
7.703540528E0,-2.370259613E-1,8.238747597E0,5.480627060E0
7.713540528E0,4.788403399E-3,8.016086578E0,5.494992256E0
7.723540394E0,1.268926859E-1,7.767089367E0,5.511751652E0
7.733540427E0,7.900865376E-2,7.656956196E0,5.478232861E0
7.743541027E0,-1.939303428E-1,7.848492622E0,5.471050262E0
7.753541027E0,-4.596867263E-1,8.265083313E0,5.466261864E0
7.763541060E0,-4.596867263E-1,8.566753387E0,5.523722649E0
7.773541026E0,-2.394201756E-1,8.370428085E0,5.617096424E0
7.783541026E0,-1.939303428E-1,7.925107002E0,5.607519627E0
7.793540992E0,-3.208230138E-1,7.719205379E0,5.454290867E0
7.803540992E0,-3.303998411E-1,7.771877766E0,5.344157696E0
7.813541025E0,-2.202665508E-1,8.061576843E0,5.442319870E0
7.823540991E0,-8.858546615E-2,8.200440407E0,5.617096424E0
7.833541024E0,-1.268926859E-1,8.219594002E0,5.674557209E0
7.843541057E0,-2.202665508E-1,8.107066154E0,5.732017994E0
7.853541057E0,-4.094084799E-1,7.891588211E0,5.799055576E0
7.863541090E0,-4.213795066E-1,7.791031837E0,5.806238174E0
7.873541056E0,-2.442085743E-1,7.803002834E0,5.715258598E0
7.883541056E0,-1.915361285E-1,7.913136005E0,5.564424038E0
7.893541089E0,-1.364694983E-1,8.145373344E0,5.444714069E0
7.903541055E0,-7.661445439E-2,8.255506516E0,5.437531471E0
7.913541055E0,0.000000000E0,8.090307236E0,5.437531471E0
7.923541755E0,-8.140286058E-2,7.836521626E0,5.456685066E0
7.933542421E0,-2.873041928E-1,7.692869186E0,5.504569054E0
7.943542387E0,-4.477157295E-1,7.798214436E0,5.502174854E0
7.953543020E0,-5.123591423E-1,8.099884033E0,5.597942829E0
7.963543920E0,-4.022258818E-1,8.279448509E0,5.681739807E0
7.973543920E0,-1.867477298E-1,8.260294914E0,5.681739807E0
7.983543886E0,-1.460463107E-1,8.083124161E0,5.518934250E0
7.993544286E0,-2.466027737E-1,7.987356186E0,5.320215225E0
8.003544986E0,-1.628057212E-1,7.956231594E0,5.284302235E0
8.013544952E0,5.985504389E-2,7.716811180E0,5.284302235E0
8.023545052E0,1.819593310E-1,7.494150639E0,5.274725437E0
8.033545018E0,-9.576806799E-3,7.542034626E0,5.241206646E0
8.043544418E0,-2.561795712E-1,7.910741806E0,5.245995045E0
8.053544384E0,-4.764461517E-1,8.296208382E0,5.284302235E0
8.063544350E0,-4.118026793E-1,8.296208382E0,5.420772076E0
8.073544383E0,-2.705447972E-1,7.838915825E0,5.494992256E0
8.083544416E0,-3.519476354E-1,7.443872452E0,5.303455830E0
8.093544416E0,-6.200982332E-1,7.410353661E0,5.095160484E0
8.103544382E0,-8.188169599E-1,7.721599579E0,5.032911301E0
8.113544415E0,-6.727706790E-1,8.095095634E0,5.286696434E0
8.123544448E0,-3.423708379E-1,8.205228806E0,5.389647484E0
8.133544381E0,-3.327940404E-1,8.078335762E0,5.521328449E0
8.143544347E0,-2.657563984E-1,7.848492622E0,5.550058842E0
8.153544380E0,-4.812345505E-1,7.587524414E0,5.473444462E0
8.163544346E0,-6.033388376E-1,7.573159218E0,5.363311291E0
8.173544346E0,-6.153098345E-1,7.721599579E0,5.356128693E0
8.183544312E0,-4.955997467E-1,7.925107002E0,5.444714069E0
8.193544312E0,-3.950432837E-1,7.989750385E0,5.530905247E0
8.203544345E0,-4.118026793E-1,8.011298180E0,5.504569054E0
8.213544311E0,-5.171475410E-1,8.061576843E0,5.399224281E0
8.223544344E0,-5.626373887E-1,8.145373344E0,5.387253284E0
8.233544377E0,-4.022258818E-1,8.217199326E0,5.454290867E0
8.243544377E0,-8.858546615E-2,8.023268700E0,5.559635639E0
8.253544377E0,-1.292868853E-1,7.934683800E0,5.593154430E0
8.263544343E0,-1.771709323E-1,8.035240173E0,5.516540051E0
8.273544343E0,-2.633621991E-1,8.166921616E0,5.492598057E0
8.283544376E0,-3.878606856E-1,8.353669167E0,5.547664642E0
8.293544342E0,-4.668693244E-1,8.528446198E0,5.662586212E0
8.303544342E0,-1.987187415E-1,8.435071945E0,5.743988991E0
8.313544375E0,3.351882473E-2,8.116642952E0,5.696105003E0
8.323544375E0,9.576806426E-2,7.886799812E0,5.552453041E0
8.333544408E0,-8.140286058E-2,8.032846451E0,5.394435883E0
8.343544374E0,-1.221042871E-1,8.396764755E0,5.394435883E0
8.353544407E0,9.097966552E-2,8.521263123E0,5.538087845E0
8.363544440E0,3.327940404E-1,8.312967300E0,5.681739807E0
8.373544406E0,2.873041928E-1,7.929895401E0,5.638644218E0
8.383544406E0,-1.292868853E-1,8.013691902E0,5.411195278E0
8.393544439E0,-2.920926213E-1,8.394370079E0,5.336975098E0
8.403544439E0,-1.604115069E-1,8.540416718E0,5.432743073E0
8.413544372E0,8.379705995E-2,8.526051521E0,5.578789234E0
8.423544338E0,1.125274822E-1,8.413523674E0,5.564424038E0
8.433544371E0,7.422025502E-2,8.284236908E0,5.382464886E0
8.443544371E0,2.154781483E-2,8.174103737E0,5.255571842E0
8.453544337E0,2.633621916E-2,8.092700958E0,5.257966042E0
8.463544337E0,1.316810995E-1,8.025663376E0,5.382464886E0
8.473544403E0,1.388636976E-1,8.040028572E0,5.499780655E0
8.483544436E0,3.830722719E-2,8.257901192E0,5.562029839E0
8.493544402E0,-5.746084079E-2,8.542811394E0,5.626673222E0
8.503544368E0,-1.508347094E-1,8.597877502E0,5.681739807E0
8.513544401E0,-2.154781520E-1,8.482955933E0,5.715258598E0
8.523544367E0,-3.136404157E-1,8.363245964E0,5.748777390E0
8.533544333E0,-3.926490843E-1,8.384793282E0,5.779901981E0
8.543544333E0,-3.016694188E-1,8.502109528E0,5.794267178E0
8.553544399E0,-2.082955539E-1,8.629002571E0,5.887641430E0
8.563544432E0,-1.987187415E-1,8.643367767E0,5.995380402E0
8.573544398E0,-2.920926213E-1,8.609848976E0,6.062417984E0
8.583544431E0,-5.195417404E-1,8.741529465E0,6.045658588E0
8.593544464E0,-4.285621047E-1,8.911518097E0,5.995380402E0
8.603544430E0,-4.309562966E-2,8.566753387E0,6.009745598E0
8.613544430E0,1.388636976E-1,8.142979622E0,6.028899193E0
8.623543763E0,-5.746084079E-2,8.166921616E0,5.906795025E0
8.633543096E0,-2.513911724E-1,8.482955933E0,5.844545841E0
8.643542529E0,-2.346317619E-1,8.753500938E0,5.933131218E0
8.653541629E0,-5.985504389E-2,8.743924141E0,6.002563000E0
8.663540762E0,-1.915361360E-2,8.365639687E0,5.937919617E0
8.673540128E0,-2.059013397E-1,8.008903503E0,5.631461620E0
8.683540094E0,-4.357447028E-1,7.975385189E0,5.430348873E0
8.693540060E0,-4.094084799E-1,8.171710014E0,5.406406879E0
8.703540060E0,-1.628057212E-1,8.324938774E0,5.514145851E0
8.713540093E0,5.506663769E-2,8.286631584E0,5.621884823E0
8.723539726E0,-3.830722719E-2,8.233959198E0,5.571606636E0
8.733539692E0,-1.604115069E-1,8.241141319E0,5.478232861E0
8.743539725E0,-1.843535304E-1,8.159738541E0,5.372888088E0
8.753539791E0,-1.508347094E-1,7.925107002E0,5.404012680E0
8.763539791E0,-1.340752989E-1,7.728782177E0,5.439925671E0
8.773539724E0,-2.609679997E-1,7.750329971E0,5.454290867E0
8.783539690E0,-2.418143749E-1,7.848492622E0,5.490203857E0
8.793539723E0,-1.963245422E-1,7.915530205E0,5.432743073E0
8.803539723E0,-1.340752989E-1,8.020874977E0,5.348946095E0
8.813539689E0,-9.097966552E-2,8.119037628E0,5.243600845E0
8.823539689E0,-6.943184882E-2,8.078335762E0,5.188534260E0
8.833539722E0,-1.675941236E-2,8.008903503E0,5.123890877E0
8.843539722E0,-1.005564705E-1,8.037634850E0,5.104737282E0
8.853539655E0,-1.795651317E-1,8.324938774E0,5.265148640E0
8.863539688E0,-8.379705995E-2,8.401553154E0,5.523722649E0
8.873539721E0,-1.268926859E-1,8.274660110E0,5.667374611E0
8.883539654E0,-3.399766386E-1,8.305785179E0,5.655403614E0
8.893539654E0,-3.950432837E-1,8.552388191E0,5.679345608E0
8.903539687E0,-1.771709323E-1,8.621819496E0,5.830180645E0
8.913539653E0,1.915361285E-1,8.320150375E0,6.000168800E0
8.923540353E0,1.508347094E-1,8.049605370E0,5.937919617E0
8.933540986E0,-1.460463107E-1,8.229170799E0,5.767930984E0
8.943541586E0,-2.346317619E-1,8.547599792E0,5.763142586E0
8.953542486E0,-1.604115069E-1,8.679280281E0,5.784690380E0
8.963543319E0,-4.788403399E-3,8.559570312E0,5.772719383E0
8.973544019E0,-4.788403399E-3,8.221987724E0,5.607519627E0
8.983544052E0,-9.576806426E-2,8.116642952E0,5.425560474E0
8.993544052E0,-1.987187415E-1,8.087912560E0,5.305850029E0
9.003544052E0,-1.125274822E-1,8.135796547E0,5.272331238E0
9.013544018E0,2.633621916E-2,8.121431351E0,5.286696434E0
9.023544418E0,1.915361360E-2,8.075942039E0,5.253177643E0
9.033544451E0,-1.915361285E-1,8.178892136E0,5.155015469E0
9.043544417E0,-3.806780577E-1,8.353669167E0,5.152621269E0
9.053544383E0,-2.873041928E-1,8.353669167E0,5.305850029E0
9.063544416E0,-1.221042871E-1,8.109460831E0,5.415983677E0
9.073544416E0,-1.675941199E-1,7.874828815E0,5.372888088E0
9.083544449E0,-2.178723514E-1,7.721599579E0,5.305850029E0
9.093544415E0,-3.064578176E-1,7.764695168E0,5.250783443E0
9.103544448E0,-3.088520169E-1,8.016086578E0,5.296273232E0
9.113544481E0,-1.891419291E-1,8.322544098E0,5.449502468E0
9.123544447E0,6.703764945E-2,8.372822762E0,5.583577633E0
9.133544447E0,1.795651317E-1,8.080730438E0,5.566818237E0
9.143544480E0,-1.029506698E-1,7.968202591E0,5.518934250E0
9.153544480E0,-2.585737705E-1,8.013691902E0,5.475838661E0
9.163544413E0,-2.920926213E-1,8.001721382E0,5.509357452E0
9.173544379E0,-2.657563984E-1,8.052000046E0,5.509357452E0
9.183544412E0,-2.609679997E-1,8.116642952E0,5.456685066E0
9.193544378E0,-1.508347094E-1,8.178892136E0,5.387253284E0
9.203544344E0,-3.591302410E-2,8.087912560E0,5.406406879E0
9.213544410E0,-5.506663769E-2,7.934683800E0,5.480627060E0
9.223544410E0,-1.915361285E-1,7.996932983E0,5.468656063E0
9.233544410E0,-2.873041928E-1,8.176498413E0,5.506963253E0
9.243544376E0,-3.016694188E-1,8.372822762E0,5.523722649E0
9.253544342E0,-1.077390760E-1,8.396764755E0,5.614702225E0
9.263544375E0,1.436520964E-1,8.066365242E0,5.585971832E0
9.273544308E0,1.460463107E-1,7.779060364E0,5.435137272E0
9.283544274E0,9.576806799E-3,7.910741806E0,5.293879032E0
9.293544307E0,-1.436520964E-1,8.360851288E0,5.360917091E0
9.303544307E0,-6.464344263E-2,8.607454300E0,5.588366032E0
9.313544307E0,4.788403213E-2,8.368034363E0,5.743988991E0
9.323544273E0,-2.178723514E-1,8.097489357E0,5.621884823E0
9.333544306E0,-5.099649429E-1,8.140584946E0,5.401618481E0
9.343544339E0,-4.429273009E-1,8.250718117E0,5.360917091E0
9.353544305E0,2.873042040E-2,8.174103737E0,5.514145851E0
9.363544338E0,2.178723514E-1,8.001721382E0,5.557241440E0
9.373544371E0,1.867477298E-1,8.020874977E0,5.463867664E0
9.383544337E0,7.422025502E-2,8.111854553E0,5.301061630E0
9.393544370E0,-9.337386489E-2,8.272266388E0,5.155015469E0
9.403544336E0,-2.298433632E-1,8.387187958E0,5.119102478E0
9.413544336E0,-2.082955539E-1,8.353669167E0,5.174169064E0
9.423544369E0,-1.077390760E-1,8.052000046E0,5.159803867E0
9.433544335E0,-2.202665508E-1,7.745541573E0,4.999392509E0
9.443544335E0,-3.711012602E-1,7.817368031E0,4.906018734E0
9.453544368E0,-3.758896589E-1,8.006509781E0,4.944325924E0
9.463544368E0,-2.801215947E-1,8.253112793E0,5.076006889E0
9.473544401E0,-2.250549644E-1,8.399158478E0,5.320215225E0
9.483544367E0,-1.675941199E-1,8.320150375E0,5.487809658E0
9.493544400E0,-9.337386489E-2,8.114249229E0,5.576395035E0
9.503544433E0,-1.005564705E-1,7.903559208E0,5.552453041E0
9.513544366E0,-1.747767180E-1,7.800608635E0,5.585971832E0
9.523544366E0,-3.950432837E-1,7.831733227E0,5.693710804E0
9.533544399E0,-6.512228847E-1,8.178892136E0,5.820603371E0
9.543544399E0,-5.530605912E-1,8.459013939E0,5.858911037E0
9.553544399E0,-2.968810201E-1,8.368034363E0,5.820603371E0
9.563544365E0,-2.633621991E-1,8.190863609E0,5.631461620E0
9.573544398E0,-2.705447972E-1,8.052000046E0,5.516540051E0
9.583544431E0,-2.968810201E-1,8.075942039E0,5.471050262E0
9.593544397E0,-2.729389966E-1,8.224382401E0,5.571606636E0
9.603544430E0,-2.130839527E-1,8.356062889E0,5.741594791E0
9.613544463E0,-3.615244627E-1,8.466196060E0,5.856516838E0
9.623543796E0,-4.237737060E-1,8.609848976E0,5.846940041E0
9.633543596E0,-3.782838583E-1,8.380004883E0,5.624279022E0
9.643542696E0,-3.567360640E-1,8.059182167E0,5.483021259E0
9.653542062E0,-2.896983922E-1,8.018480301E0,5.360917091E0
9.663541128E0,-2.825157940E-1,8.238747597E0,5.267542839E0
9.673540228E0,-6.464344263E-2,8.360851288E0,5.334580898E0
9.683539594E0,4.548983276E-2,8.245929718E0,5.346551895E0
9.693539560E0,-2.633621916E-2,8.154950142E0,5.308244228E0
9.703538893E0,-3.136404157E-1,8.250718117E0,5.222053051E0
9.713538893E0,-5.243301988E-1,8.320150375E0,5.234024048E0
9.723538926E0,-3.687070608E-1,8.210017204E0,5.353734493E0
9.733538992E0,-2.873041928E-1,7.953837395E0,5.461473465E0
9.743538958E0,-3.351882398E-1,7.877223015E0,5.468656063E0
9.753538924E0,-4.261679053E-1,7.982567787E0,5.435137272E0
9.763538957E0,-4.644751251E-1,8.128614426E0,5.411195278E0
9.773538923E0,-4.022258818E-1,8.267477989E0,5.480627060E0
9.783538923E0,-3.112462163E-1,8.296208382E0,5.588366032E0
9.793538889E0,-1.651999205E-1,8.221987724E0,5.629067421E0
9.803538922E0,-1.675941199E-1,8.152556419E0,5.669768810E0
9.813538955E0,-3.303998411E-1,8.166921616E0,5.770325184E0
9.823538921E0,-3.926490843E-1,8.257901192E0,5.890035629E0
9.833538921E0,-3.806780577E-1,8.320150375E0,5.894824028E0
9.843538921E0,-3.902548850E-1,8.437465668E0,5.813420773E0
9.853538954E0,-1.508347094E-1,8.418312073E0,5.722441196E0
9.863538987E0,-1.197100803E-2,8.202834129E0,5.645826817E0
9.873538953E0,-4.070143029E-2,8.329727173E0,5.547664642E0
9.883538953E0,-1.436520964E-1,8.559570312E0,5.547664642E0
9.893538986E0,-1.029506698E-1,8.619425774E0,5.681739807E0
9.903538952E0,-4.070143029E-2,8.413523674E0,5.787084579E0
9.913538918E0,-2.154781520E-1,8.212410927E0,5.708076000E0
9.923539584E0,-3.902548850E-1,8.286631584E0,5.545270443E0
9.933539750E0,-2.777273953E-1,8.389581680E0,5.408801079E0
9.943540616E0,1.149216816E-1,8.257901192E0,5.368099689E0
9.953541249E0,2.825157940E-1,7.901165009E0,5.310638428E0
9.963542149E0,1.436520964E-1,7.829339027E0,5.202899456E0
9.973543049E0,-1.436520964E-1,8.054393768E0,5.107131481E0
9.983543682E0,-3.998316824E-1,8.463802338E0,5.131073475E0
9.993543715E0,-4.381389022E-1,8.767866135E0,5.315426826E0
1.000354438E1,-2.202665508E-1,8.478167534E0,5.485415459E0
1.001354438E1,-1.532289088E-1,7.956231594E0,5.437531471E0
1.002354431E1,-2.681505978E-1,7.747935772E0,5.219658852E0
1.003354425E1,-3.040636182E-1,7.910741806E0,5.171774864E0
1.004354428E1,-1.675941236E-2,8.035240173E0,5.346551895E0
1.005354431E1,9.576806426E-2,8.073547363E0,5.557241440E0
1.006354428E1,-1.029506698E-1,8.198045731E0,5.535693645E0
1.007354428E1,-4.692635238E-1,8.391976357E0,5.370493889E0
1.008354434E1,-5.410895944E-1,8.423100471E0,5.336975098E0
1.009354438E1,-3.926490843E-1,8.198045731E0,5.389647484E0
1.010354431E1,-2.466027737E-1,8.040028572E0,5.425560474E0
1.011354434E1,-4.070143029E-2,7.826944828E0,5.427954674E0
1.012354438E1,-2.394201607E-2,7.652167797E0,5.392041683E0
1.013354434E1,-2.154781520E-1,7.774271965E0,5.344157696E0
1.014354434E1,-4.525041282E-1,8.217199326E0,5.289090633E0
1.015354431E1,-3.758896589E-1,8.549993515E0,5.293879032E0
1.016354431E1,-1.101332754E-1,8.334515572E0,5.327397823E0
1.017354434E1,-4.548983276E-2,7.867646217E0,5.202899456E0
1.018354431E1,-3.256114423E-1,7.814973831E0,5.006575108E0
1.019354431E1,-4.836287498E-1,8.008903503E0,5.011363506E0
1.020354434E1,-4.548983276E-1,8.164526939E0,5.236418247E0
1.021354434E1,-4.381389022E-1,8.298602104E0,5.569212437E0
1.022354437E1,-3.926490843E-1,8.336909294E0,5.743988991E0
1.023354434E1,-3.806780577E-1,8.312967300E0,5.748777390E0
1.024354437E1,-2.322375625E-1,8.193257332E0,5.581183434E0
1.025354441E1,7.182605099E-3,7.882011414E0,5.494992256E0
1.026354437E1,4.788403399E-3,7.735964775E0,5.423166275E0
1.027354437E1,-2.106897533E-1,8.006509781E0,5.411195278E0
1.028354440E1,-4.070142806E-1,8.552388191E0,5.494992256E0
1.029354437E1,-2.777273953E-1,8.734347343E0,5.684134007E0
1.030354437E1,-1.628057212E-1,8.396764755E0,5.741594791E0
1.031354434E1,-2.585737705E-1,7.922712803E0,5.533299446E0
1.032354437E1,-5.195417404E-1,7.874828815E0,5.265148640E0
1.033354440E1,-7.038952708E-1,8.099884033E0,5.205293655E0
1.034354437E1,-5.363011956E-1,8.229170799E0,5.380070686E0
1.035354437E1,-2.777273953E-1,8.236352921E0,5.660192013E0
1.036354440E1,-1.843535304E-1,8.080730438E0,5.653009415E0
1.037354440E1,-4.118026793E-1,8.150161743E0,5.478232861E0
1.038354434E1,-4.596867263E-1,8.320150375E0,5.387253284E0
1.039354430E1,-2.442085743E-1,8.327332497E0,5.487809658E0
1.040354433E1,-6.703764945E-2,8.296208382E0,5.621884823E0
1.041354427E1,0.000000000E0,8.193257332E0,5.724835396E0
1.042354427E1,-1.292868853E-1,8.152556419E0,5.717652798E0
1.043354430E1,-4.261679053E-1,8.255506516E0,5.657797813E0
1.044354430E1,-4.118026793E-1,8.444648743E0,5.724835396E0
1.045354430E1,-3.591302633E-1,8.731952667E0,5.846940041E0
1.046354427E1,-4.788403213E-2,8.906729698E0,5.882853031E0
1.047354430E1,1.340752989E-1,8.842085838E0,5.827786446E0
1.048354433E1,2.394201700E-3,8.772654533E0,5.686528206E0
1.049354433E1,-2.082955539E-1,8.858845711E0,5.703287601E0
1.050354430E1,-2.777273953E-1,8.949825287E0,5.849334240E0
1.051354433E1,-2.609679997E-1,9.019257545E0,6.081571579E0
1.052354430E1,-1.101332754E-1,8.966584206E0,6.112696171E0
1.053354430E1,-8.619125932E-2,8.906729698E0,6.031293392E0
1.054354426E1,7.182605099E-3,8.741529465E0,5.892429829E0
1.055354426E1,1.077390760E-1,8.494926453E0,5.815814972E0
1.056354430E1,1.628057212E-1,8.329727173E0,5.832574844E0
1.057354426E1,1.412578970E-1,8.121431351E0,5.858911037E0
1.058354430E1,-8.858546615E-2,8.116642952E0,5.777507782E0
1.059354433E1,-2.657563984E-1,8.178892136E0,5.571606636E0
1.060354433E1,-3.543418646E-1,8.147768021E0,5.459079266E0
1.061354436E1,-2.705447972E-1,8.068758965E0,5.332186222E0
1.062354366E1,-2.370259613E-1,7.939472198E0,5.234024048E0
1.063354319E1,-3.327940404E-1,7.795820236E0,5.135861874E0
1.064354236E1,-4.189853072E-1,7.723993778E0,5.145438671E0
1.065354166E1,-5.003881454E-1,7.692869186E0,5.155015469E0
1.066354166E1,-5.339069963E-1,7.731176376E0,5.131073475E0
1.067354079E1,-4.572925270E-1,7.743147373E0,5.099948883E0
1.068354046E1,-2.729389966E-1,7.680898190E0,5.121496677E0
1.069354049E1,-1.340752989E-1,7.582736015E0,5.145438671E0
1.070354053E1,-7.182604820E-2,7.594707012E0,5.183745861E0
1.071354059E1,-6.464344263E-2,7.489362240E0,5.260360241E0
1.072354059E1,-1.292868853E-1,7.434295654E0,5.296273232E0
1.073354056E1,-2.729389966E-1,7.561188221E0,5.224447250E0
1.074354056E1,-3.160346150E-1,7.735964775E0,5.157409668E0
1.075354056E1,-1.819593310E-1,7.836521626E0,5.052064896E0
1.076354059E1,-3.112462163E-2,7.805397034E0,4.917989731E0
1.077354052E1,8.379705995E-2,7.771877766E0,4.759673119E0
1.078354049E1,9.097966552E-2,7.783848763E0,4.721365929E0
1.079354049E1,7.182604820E-2,7.879617214E0,4.805162907E0
1.080354049E1,7.182604820E-2,7.934683800E0,4.898836136E0
1.081354046E1,1.675941236E-2,7.941866398E0,5.052064896E0
1.082353979E1,9.576806799E-3,7.884405613E0,5.183745861E0
1.083353985E1,4.788403399E-3,7.829339027E0,5.219658852E0
1.084353989E1,5.267243832E-2,7.855675220E0,5.222053051E0
1.085353985E1,4.788403213E-2,8.001721382E0,5.277119637E0
1.086353989E1,5.985504389E-2,8.145373344E0,5.401618481E0
1.087353992E1,9.337386489E-2,8.107066154E0,5.473444462E0
1.088353985E1,-2.633621916E-2,8.322544098E0,5.545270443E0
1.089353985E1,-1.484405100E-1,8.576330185E0,5.372888088E0
1.090353985E1,-8.858546615E-2,8.612242699E0,5.437531471E0
1.091353985E1,1.268926859E-1,8.430283546E0,5.562029839E0
1.092354055E1,1.436520964E-1,8.250718117E0,5.722441196E0
1.093354098E1,-1.436521020E-2,8.300996780E0,5.858911037E0
1.094354185E1,-2.370259613E-1,8.492532730E0,5.988197803E0
1.095354255E1,-3.399766386E-1,8.629002571E0,6.103119373E0
1.096354252E1,-3.758896589E-1,8.681674957E0,6.107907772E0
1.097354342E1,-3.256114423E-1,8.717587471E0,5.959467411E0
1.098354375E1,-1.484405100E-1,8.657732964E0,5.830180645E0
1.099354375E1,6.224924326E-2,8.456619263E0,5.775113583E0
1.100354372E1,1.795651317E-1,8.260294914E0,5.770325184E0
1.101354365E1,5.985504389E-2,8.205228806E0,5.789478779E0
1.102354365E1,-1.843535304E-1,8.389581680E0,5.789478779E0
1.103354368E1,-5.147533417E-1,8.743924141E0,5.806238174E0
1.104354368E1,-6.320692301E-1,8.839692116E0,5.856516838E0
1.105354368E1,-4.237737060E-1,8.696040154E0,5.755959988E0
1.106354365E1,-3.806780577E-1,8.444648743E0,5.782296181E0
1.107354368E1,-3.711012602E-1,8.162133217E0,5.724835396E0
1.108354371E1,-4.118026793E-1,8.169315338E0,5.559635639E0
1.109354368E1,-5.674257874E-1,8.226776123E0,5.595548630E0
1.110354371E1,-4.620809257E-1,8.080730438E0,5.645826817E0
1.111354375E1,-5.003881454E-1,7.944260597E0,5.832574844E0
1.112354441E1,-5.410895944E-1,7.949048996E0,5.839757442E0
1.113354434E1,-5.578489900E-1,8.075942039E0,5.746383190E0
1.114354431E1,-3.495534360E-1,7.870040417E0,5.856516838E0
1.115354434E1,-4.453215301E-1,7.980173588E0,5.794267178E0
1.116354428E1,-5.578489900E-1,8.370428085E0,5.686528206E0
1.117354424E1,-4.070142806E-1,8.664915085E0,5.425560474E0
1.118354428E1,-2.777273953E-1,8.717587471E0,5.432743073E0
1.119354424E1,-2.346317619E-1,8.430283546E0,5.375282288E0
1.120354424E1,-1.987187415E-1,8.269871712E0,5.241206646E0
1.121354421E1,-5.267243832E-2,8.164526939E0,5.207687855E0
1.122354424E1,-1.197100803E-2,8.056788445E0,5.346551895E0
1.123354427E1,-2.394201756E-1,8.121431351E0,5.521328449E0
1.124354424E1,-4.525041282E-1,8.229170799E0,5.739200592E0
1.125354421E1,-5.578489900E-1,8.300996780E0,6.004957199E0
1.126354424E1,-5.171475410E-1,8.530839920E0,6.105513573E0
1.127354420E1,-2.394201700E-3,8.585906982E0,6.021716595E0
1.128354420E1,1.628057212E-1,8.178892136E0,6.043264389E0
1.129354417E1,1.221042871E-1,7.786243439E0,5.791872978E0
1.130354417E1,-1.604115069E-1,7.726387978E0,5.585971832E0
1.131354420E1,-3.016694188E-1,8.068758965E0,5.413589478E0
1.132354417E1,-3.567360640E-1,8.466196060E0,5.322609425E0
1.133354420E1,-3.088520169E-1,8.684068680E0,5.392041683E0
1.134354424E1,-2.394201756E-1,8.516474724E0,5.394435883E0
1.135354424E1,-3.280056417E-1,8.157344818E0,5.389647484E0
1.136354427E1,-4.237737060E-1,7.834127426E0,5.380070686E0
1.137354424E1,-5.027823448E-1,7.654561996E0,5.389647484E0
1.138354424E1,-4.764461517E-1,7.750329971E0,5.437531471E0
1.139354427E1,-4.046200812E-1,7.961019993E0,5.494992256E0
1.140354423E1,-3.902548850E-1,8.135796547E0,5.523722649E0
1.141354423E1,-4.357447028E-1,8.238747597E0,5.473444462E0
1.142354427E1,-3.232172430E-1,8.145373344E0,5.449502468E0
1.143354427E1,-9.337386489E-2,7.903559208E0,5.425560474E0
1.144354427E1,-3.112462163E-2,7.613860607E0,5.387253284E0
1.145354423E1,-2.370259613E-1,7.436689854E0,5.317821026E0
1.146354430E1,-5.195417404E-1,7.508515835E0,5.231629848E0
1.147354433E1,-7.398083210E-1,7.774271965E0,5.176563263E0
1.148354430E1,-7.182605267E-1,8.061576843E0,5.157409668E0
1.149354433E1,-5.913678408E-1,8.221987724E0,5.234024048E0
1.150354436E1,-3.998316824E-1,8.085518837E0,5.301061630E0
1.151354436E1,-2.513911724E-1,7.750329971E0,5.365705490E0
1.152354430E1,-1.843535304E-1,7.525275230E0,5.334580898E0
1.153354426E1,-2.130839527E-1,7.436689854E0,5.310638428E0
1.154354430E1,-3.303998411E-1,7.601889610E0,5.325003624E0
1.155354430E1,-4.860229492E-1,7.996932983E0,5.380070686E0
1.156354426E1,-5.051765442E-1,8.341697693E0,5.480627060E0
1.157354430E1,-2.489969730E-1,8.305785179E0,5.619490623E0
1.158354433E1,-8.858546615E-2,7.984961987E0,5.736806393E0
1.159354433E1,-9.097966552E-2,7.740753174E0,5.763142586E0
1.160354429E1,-2.082955539E-1,7.836521626E0,5.619490623E0
1.161354433E1,-2.777273953E-1,8.210017204E0,5.423166275E0
1.162354369E1,-1.723825186E-1,8.370428085E0,5.370493889E0
1.163354296E1,-1.316810995E-1,8.358457565E0,5.444714069E0
1.164354226E1,-2.873042040E-2,8.257901192E0,5.557241440E0
1.165354162E1,-5.506663769E-2,8.068758965E0,5.574000835E0
1.166354072E1,-2.106897533E-1,8.166921616E0,5.602731228E0
1.167354072E1,-2.801215947E-1,8.238747597E0,5.624279022E0
1.168354003E1,-2.226607651E-1,8.198045731E0,5.645826817E0
1.169354002E1,-2.298433632E-1,8.080730438E0,5.607519627E0
1.170353939E1,-3.447650373E-1,8.133402824E0,5.504569054E0
1.171353939E1,-3.495534360E-1,8.435071945E0,5.372888088E0
1.172353942E1,-1.843535304E-1,8.528446198E0,5.408801079E0
1.173353909E1,6.943184882E-2,8.427888870E0,5.708076000E0
1.174353886E1,1.173158810E-1,8.102277756E0,5.940313816E0
1.175353889E1,-1.532289088E-1,7.934683800E0,5.964255810E0
1.176353882E1,-5.530605912E-1,8.145373344E0,5.882853031E0
1.177353882E1,-7.948749661E-1,8.636184692E0,5.827786446E0
1.178353886E1,-7.134721279E-1,8.945036888E0,5.909189224E0
1.179353882E1,-4.237737060E-1,8.990526199E0,6.026504993E0
1.180353879E1,-1.604115069E-1,8.719982147E0,6.079177380E0
1.181353879E1,1.029506698E-1,8.147768021E0,6.038475990E0
1.182353845E1,-3.112462163E-2,7.735964775E0,5.983409405E0
1.183353849E1,-2.753331959E-1,7.927501202E0,5.842151642E0
1.184353845E1,-3.998316824E-1,8.439860344E0,5.894824028E0
1.185353848E1,-2.681505978E-1,8.753500938E0,6.040870190E0
1.186353852E1,-1.675941199E-1,8.633790970E0,6.016928196E0
1.187353848E1,-2.418143749E-1,8.284236908E0,5.720046997E0
1.188353845E1,-3.567360640E-1,8.092700958E0,5.413589478E0
1.189353845E1,-4.022258818E-1,7.901165009E0,5.210082054E0
1.190353848E1,-3.782838583E-1,7.819762230E0,5.183745861E0
1.191353842E1,-2.035071403E-1,7.913136005E0,5.164592266E0
1.192353905E1,-2.250549644E-1,8.018480301E0,5.267542839E0
1.193353975E1,-1.221042871E-1,8.083124161E0,5.195716858E0
1.194354042E1,-1.436520964E-1,7.970596790E0,5.315426826E0
1.195354105E1,-1.628057212E-1,7.879617214E0,5.423166275E0
1.196354191E1,-1.604115069E-1,7.860463619E0,5.471050262E0
1.197354198E1,-2.489969730E-1,7.795820236E0,5.471050262E0
1.198354268E1,-3.974374831E-1,7.728782177E0,5.494992256E0
1.199354265E1,-5.817909837E-1,7.692869186E0,5.396830082E0
1.200354328E1,-6.607996821E-1,7.834127426E0,5.274725437E0
1.201354328E1,-5.434837937E-1,8.011298180E0,5.241206646E0
1.202354321E1,-2.442085743E-1,7.951443195E0,5.341763496E0
1.203354354E1,2.082955539E-1,7.716811180E0,5.308244228E0
1.204354378E1,6.943184882E-2,7.542034626E0,5.425560474E0
1.205354381E1,-2.585737705E-1,7.621043205E0,5.471050262E0
1.206354384E1,-4.884171486E-1,7.882011414E0,5.456685066E0
1.207354381E1,-6.033388376E-1,8.183680534E0,5.516540051E0
1.208354384E1,-6.248866320E-1,8.310573578E0,5.574000835E0
1.209354388E1,-4.740519226E-1,8.056788445E0,5.619490623E0
1.210354388E1,-3.064578176E-1,7.807791233E0,5.538087845E0
1.211354391E1,-3.519476354E-1,7.611466408E0,5.459079266E0
1.212354424E1,-4.309563041E-1,7.759906769E0,5.497386456E0
1.213354424E1,-4.261679053E-1,8.123826027E0,5.550058842E0
1.214354428E1,-3.495534360E-1,8.360851288E0,5.408801079E0
1.215354424E1,-4.572925270E-1,8.521263123E0,5.425560474E0
1.216354424E1,-2.250549644E-1,8.504503250E0,5.380070686E0
1.217354427E1,6.703764945E-2,8.087912560E0,5.339369297E0
1.218354427E1,5.985504389E-2,7.731176376E0,5.325003624E0
1.219354427E1,-1.628057212E-1,7.448660851E0,5.224447250E0
1.220354424E1,-3.902548850E-1,7.522881031E0,5.176563263E0
1.221354427E1,-5.027823448E-1,7.812579632E0,5.267542839E0
1.222354431E1,-3.351882398E-1,7.987356186E0,5.401618481E0
1.223354427E1,-1.580173075E-1,8.004115105E0,5.528511047E0
1.224354430E1,-5.746084079E-2,7.949048996E0,5.447108269E0
1.225354434E1,-1.316810995E-1,7.855675220E0,5.188534260E0
1.226354434E1,-2.418143749E-1,7.798214436E0,5.028122902E0
1.227354427E1,-4.118026793E-1,7.735964775E0,4.994604111E0
1.228354424E1,-3.256114423E-1,7.783848763E0,5.071218491E0
1.229354427E1,-4.189853072E-1,8.013691902E0,5.222053051E0
1.230354427E1,-5.650315881E-1,8.346486092E0,5.188534260E0
1.231354424E1,-4.405331016E-1,8.439860344E0,5.135861874E0
1.232354427E1,-2.250549644E-1,8.389581680E0,5.219658852E0
1.233354430E1,3.351882473E-2,8.164526939E0,5.490203857E0
1.234354430E1,1.675941236E-2,7.905953407E0,5.753565788E0
1.235354424E1,-3.495534360E-1,7.992144585E0,5.854122639E0
1.236354427E1,-6.320692301E-1,8.449437141E0,5.693710804E0
1.237354430E1,-5.363011956E-1,8.983344078E0,5.621884823E0
1.238354423E1,-2.130839527E-1,8.983344078E0,5.799055576E0
1.239354420E1,1.340752989E-1,8.636184692E0,5.830180645E0
1.240354423E1,1.244984865E-1,8.473379135E0,5.777507782E0
1.241354420E1,-9.097966552E-2,8.408735275E0,5.564424038E0
1.242354420E1,-2.418143749E-1,8.478167534E0,5.346551895E0
1.243354416E1,-3.423708379E-1,8.624214172E0,5.447108269E0
1.244354416E1,-3.758896589E-1,8.777442932E0,5.631461620E0
1.245354420E1,-4.620809257E-1,9.012074471E0,5.842151642E0
1.246354416E1,-4.333505034E-1,9.055170059E0,5.949890614E0
1.247354420E1,-1.915361285E-1,8.806173325E0,6.045658588E0
1.248354423E1,-9.576806426E-2,8.451830864E0,6.052841187E0
1.249354423E1,-2.346317619E-1,8.286631584E0,5.971438408E0
1.250354423E1,-2.920926213E-1,8.391976357E0,5.755959988E0
1.251354420E1,-2.130839527E-1,8.597877502E0,5.521328449E0
1.252354420E1,-1.867477298E-1,8.696040154E0,5.437531471E0
1.253354423E1,-2.011129409E-1,8.674491882E0,5.552453041E0
1.254354420E1,-1.508347094E-1,8.473379135E0,5.669768810E0
1.255354420E1,-2.059013397E-1,8.116642952E0,5.796661377E0
1.256354423E1,-3.639186621E-1,7.905953407E0,5.772719383E0
1.257354423E1,-6.057330370E-1,7.982567787E0,5.691316605E0
1.258354426E1,-6.655880809E-1,8.186075211E0,5.645826817E0
1.259354423E1,-6.153098345E-1,8.411129951E0,5.638644218E0
1.260354426E1,-5.075707436E-1,8.447042465E0,5.715258598E0
1.261354429E1,-2.561795712E-1,8.030451775E0,5.638644218E0
1.262354359E1,-1.580173075E-1,7.695263386E0,5.427954674E0
1.263354293E1,-2.729389966E-1,7.491756439E0,5.119102478E0
1.264354229E1,-5.003881454E-1,7.527669430E0,4.865017891E0
1.265354142E1,-5.506663918E-1,7.850886822E0,4.826710701E0
1.266354069E1,-5.482721925E-1,8.097489357E0,4.857835293E0
1.267353999E1,-6.224924326E-1,8.375216484E0,4.980238914E0
1.268354002E1,-6.440402865E-1,8.418312073E0,5.145438671E0
1.269353936E1,-4.237737060E-1,8.147768021E0,5.176563263E0
1.270353899E1,-2.920926213E-1,7.853281021E0,5.217264652E0
1.271353832E1,-3.663128614E-1,7.604283810E0,5.133467674E0
1.272353839E1,-5.123591423E-1,7.640196800E0,5.054459095E0
1.273353842E1,-5.530605912E-1,8.044816971E0,4.992209911E0
1.274353842E1,-5.171475410E-1,8.356062889E0,5.013757706E0
1.275353839E1,-4.261679053E-1,8.595483780E0,5.092766285E0
1.276353842E1,-4.309563041E-1,8.612242699E0,5.234024048E0
1.277353835E1,-2.801215947E-1,8.466196060E0,5.451896667E0
1.278353832E1,-2.489969730E-1,8.190863609E0,5.643432617E0
1.279353832E1,-4.237737060E-1,8.001721382E0,5.705681801E0
1.280353835E1,-7.134721279E-1,8.327332497E0,5.717652798E0
1.281353839E1,-7.541735172E-1,8.904335022E0,5.684134007E0
1.282353835E1,-4.261679053E-1,9.210793495E0,5.664980412E0
1.283353838E1,-8.858546615E-2,8.980949402E0,5.760748386E0
1.284353842E1,3.830722719E-2,8.672098160E0,5.822998047E0
1.285353838E1,-1.484405100E-1,8.478167534E0,5.813420773E0
1.286353838E1,-3.160346150E-1,8.516474724E0,5.667374611E0
1.287353838E1,-3.088520169E-1,8.609848976E0,5.562029839E0
1.288353838E1,-3.351882398E-1,8.619425774E0,5.631461620E0
1.289353842E1,-4.405331016E-1,8.710405350E0,5.753565788E0
1.290353838E1,-2.753331959E-1,8.818143845E0,5.760748386E0
1.291353838E1,6.943184882E-2,8.870816231E0,5.696105003E0
1.292353908E1,3.136404157E-1,8.626607895E0,5.605125427E0
1.293353972E1,2.849099934E-1,8.147768021E0,5.348946095E0
1.294354035E1,-1.699883193E-1,7.836521626E0,4.568136692E0
1.295354122E1,-4.596867263E-1,7.917924404E0,4.079719543E0
1.296354192E1,-7.326257229E-1,8.104672432E0,4.146757126E0
1.297354262E1,-8.475474119E-1,8.217199326E0,4.740519524E0
1.298354258E1,-7.134721279E-1,8.174103737E0,5.399224281E0
1.299354325E1,-5.410895944E-1,8.030451775E0,6.000168800E0
1.300354358E1,-4.070142806E-1,7.879617214E0,6.210858345E0
1.301354428E1,-4.261679053E-1,7.939472198E0,6.230011940E0
1.302354421E1,-2.920926213E-1,8.025663376E0,5.973832607E0
1.303354418E1,-2.082955539E-1,8.080730438E0,5.382464886E0
1.304354418E1,-2.106897533E-1,7.994538784E0,4.778826714E0
1.305354418E1,-5.626373887E-1,8.231564522E0,4.414907932E0
1.306354414E1,-4.860229492E-1,8.250718117E0,4.450820923E0
1.307354414E1,-2.801215947E-1,7.898770809E0,4.762067318E0
1.308354421E1,-3.280056417E-1,7.580341816E0,5.102343082E0
1.309354424E1,-5.578489900E-1,7.747935772E0,5.327397823E0
1.310354421E1,-4.764461517E-1,8.265083313E0,5.360917091E0
1.311354424E1,-3.734954596E-1,8.763077736E0,5.420772076E0
1.312354428E1,-1.556231081E-1,8.892364502E0,5.461473465E0
1.313354421E1,0.000000000E0,8.566753387E0,5.473444462E0
1.314354421E1,-3.830722719E-2,8.231564522E0,5.547664642E0
1.315354421E1,-1.747767180E-1,7.975385189E0,5.485415459E0
1.316354421E1,-3.471592367E-1,7.994538784E0,5.382464886E0
1.317354424E1,-5.195417404E-1,8.298602104E0,5.370493889E0
1.318354421E1,-5.865794420E-1,8.444648743E0,5.404012680E0
1.319354421E1,-4.740519226E-1,8.480561256E0,5.420772076E0
1.320354424E1,-2.705447972E-1,8.277054787E0,5.427954674E0
1.321354421E1,-1.891419291E-1,8.013691902E0,5.478232861E0
1.322354421E1,-1.651999205E-1,7.855675220E0,5.569212437E0
1.323354421E1,-2.466027737E-1,7.891588211E0,5.643432617E0
1.324354424E1,-3.711012602E-1,8.078335762E0,5.657797813E0
1.325354427E1,-4.429273009E-1,8.394370079E0,5.595548630E0
1.326354424E1,-4.405331016E-1,8.593089104E0,5.499780655E0
1.327354420E1,-4.453215301E-1,8.739135742E0,5.368099689E0
1.328354420E1,-4.333505034E-1,8.655338287E0,5.418377876E0
1.329354424E1,-2.729389966E-1,8.387187958E0,5.540482044E0
1.330354424E1,-1.819593310E-1,8.054393768E0,5.585971832E0
1.331354420E1,-2.729389966E-1,7.721599579E0,5.497386456E0
1.332354424E1,-4.357447028E-1,7.759906769E0,5.368099689E0
1.333354427E1,-5.410895944E-1,8.006509781E0,5.269937038E0
1.334354424E1,-5.578489900E-1,8.265083313E0,5.265148640E0
1.335354424E1,-3.495534360E-1,8.360851288E0,5.358522892E0
1.336354430E1,-1.053448766E-1,8.066365242E0,5.463867664E0
1.337354434E1,-1.053448766E-1,7.498939037E0,5.540482044E0
1.338354427E1,-3.088520169E-1,7.144597054E0,5.406406879E0
1.339354427E1,-6.129156351E-1,7.197269440E0,5.169380665E0
1.340354430E1,-7.445967197E-1,7.565976620E0,4.973056316E0
1.341354423E1,-6.512228847E-1,8.023268700E0,4.879383087E0
1.342354420E1,-3.519476354E-1,8.109460831E0,5.032911301E0
1.343354420E1,-1.268926859E-1,7.671321392E0,5.217264652E0
1.344354420E1,-2.705447972E-1,7.403171062E0,5.255571842E0
1.345354423E1,-5.961562395E-1,7.463026047E0,5.159803867E0
1.346354420E1,-6.895300746E-1,7.599495411E0,5.087977886E0
1.347354420E1,-6.200982332E-1,7.668927193E0,5.083189487E0
1.348354420E1,-6.560112834E-1,7.702445984E0,5.171774864E0
1.349354420E1,-6.105214357E-1,7.946654797E0,5.224447250E0
1.350354420E1,-4.716577232E-1,8.056788445E0,5.174169064E0
1.351354420E1,-1.963245422E-1,7.853281021E0,5.253177643E0
1.352354420E1,-1.556231081E-1,7.561188221E0,5.394435883E0
1.353354423E1,-3.232172430E-1,7.601889610E0,5.389647484E0
1.354354420E1,-4.764461517E-1,7.922712803E0,5.222053051E0
1.355354416E1,-4.932055473E-1,8.262689590E0,5.052064896E0
1.356354416E1,-4.213795066E-1,8.456619263E0,5.061641693E0
1.357354420E1,-3.615244627E-1,8.523657799E0,5.255571842E0
1.358354423E1,-3.591302633E-1,8.569147110E0,5.478232861E0
1.359354420E1,-2.394201756E-1,8.387187958E0,5.696105003E0
1.360354423E1,-1.053448766E-1,8.044816971E0,5.818209171E0
1.361354426E1,-2.777273953E-1,7.704840183E0,5.724835396E0
1.362354356E1,-3.495534360E-1,7.702445984E0,5.621884823E0
1.363354286E1,-4.525041282E-1,8.028057098E0,5.339369297E0
1.364354200E1,-3.758896589E-1,8.456619263E0,5.265148640E0
1.365354186E1,-8.140286058E-2,8.708010674E0,5.394435883E0
1.366354093E1,1.340752989E-1,8.499714851E0,5.619490623E0
1.367354093E1,-5.267243832E-2,8.080730438E0,5.856516838E0
1.368354036E1,-4.189853072E-1,7.795820236E0,5.904400826E0
1.369354033E1,-8.164227605E-1,8.004115105E0,5.779901981E0
1.370354029E1,-6.823474765E-1,8.334515572E0,5.815814972E0
1.371353963E1,-5.219359994E-1,8.626607895E0,5.916371822E0
1.372353892E1,-3.016694188E-1,8.559570312E0,5.976226807E0
1.373353896E1,-2.082955539E-1,8.238747597E0,6.062417984E0
1.374353896E1,-3.303998411E-1,7.925107002E0,6.098330975E0
1.375353896E1,-4.525041282E-1,7.757512569E0,6.189310551E0
1.376353896E1,-6.799532771E-1,7.972990990E0,6.194098949E0
1.377353896E1,-7.757213712E-1,8.341697693E0,6.158185959E0
1.378353899E1,-6.536170840E-1,8.492532730E0,6.198887348E0
1.379353896E1,-5.793967843E-1,8.528446198E0,6.304232121E0
1.380353896E1,-6.296750307E-1,8.731952667E0,6.292261124E0
1.381353899E1,-3.567360640E-1,8.712799072E0,6.222829342E0
1.382353896E1,-9.576806426E-2,8.291419983E0,6.122272968E0
1.383353899E1,-1.819593310E-1,7.898770809E0,5.952284813E0
1.384353902E1,-5.458779931E-1,8.028057098E0,5.779901981E0
1.385353902E1,-7.852981687E-1,8.643367767E0,5.626673222E0
1.386353906E1,-4.381389022E-1,8.945036888E0,5.669768810E0
1.387353902E1,-1.915361285E-1,8.913911819E0,5.854122639E0
1.388353902E1,1.197100803E-2,8.545205116E0,6.052841187E0
1.389353905E1,-7.900865376E-2,8.078335762E0,6.024110794E0
1.390353902E1,-3.519476354E-1,7.929895401E0,5.832574844E0
1.391353899E1,-6.200982332E-1,8.111854553E0,5.629067421E0
1.392353965E1,-6.751648784E-1,8.566753387E0,5.619490623E0
1.393354035E1,-4.836287498E-1,9.024045944E0,5.784690380E0
1.394354122E1,-2.154781520E-1,9.059958458E0,5.949890614E0
1.395354135E1,9.576806799E-3,8.791808128E0,6.098330975E0
1.396354228E1,9.816227108E-2,8.401553154E0,6.071994781E0
1.397354228E1,-1.005564705E-1,8.140584946E0,5.894824028E0
1.398354285E1,-3.064578176E-1,8.102277756E0,5.715258598E0
1.399354285E1,-4.884171486E-1,8.224382401E0,5.691316605E0
1.400354285E1,-5.123591423E-1,8.336909294E0,5.787084579E0
1.401354355E1,-3.351882398E-1,8.322544098E0,5.913977623E0
1.402354425E1,-1.460463107E-1,8.138191223E0,6.012139797E0
1.403354422E1,-6.224924326E-2,7.972990990E0,5.995380402E0
1.404354422E1,2.873042040E-2,7.870040417E0,5.890035629E0
1.405354418E1,2.154781483E-2,7.779060364E0,5.681739807E0
1.406354418E1,-6.703764945E-2,7.798214436E0,5.566818237E0
1.407354415E1,-2.777273953E-1,7.838915825E0,5.526116848E0
1.408354418E1,-3.639186621E-1,8.054393768E0,5.516540051E0
1.409354421E1,-3.208230138E-1,8.169315338E0,5.511751652E0
1.410354418E1,-2.106897533E-1,7.932289600E0,5.545270443E0
1.411354421E1,-3.040636182E-1,7.494150639E0,5.609913826E0
1.412354425E1,-5.339069963E-1,7.221211433E0,5.602731228E0
1.413354418E1,-8.044517636E-1,7.259518623E0,5.540482044E0
1.414354414E1,-7.996633649E-1,7.506121635E0,5.461473465E0
1.415354414E1,-6.751648784E-1,7.762300968E0,5.502174854E0
1.416354415E1,-4.548983276E-1,7.893982410E0,5.583577633E0
1.417354418E1,-2.825157940E-1,7.817368031E0,5.550058842E0
1.418354414E1,-1.651999205E-1,7.546823025E0,5.444714069E0
1.419354411E1,-2.059013397E-1,7.237970829E0,5.296273232E0
1.420354411E1,-3.040636182E-1,7.163750648E0,5.169380665E0
1.421354414E1,-4.668693244E-1,7.376834869E0,5.044882298E0
1.422354418E1,-5.339069963E-1,7.683292389E0,5.056853294E0
1.423354414E1,-5.195417404E-1,7.874828815E0,5.054459095E0
1.424354418E1,-4.357447028E-1,7.956231594E0,5.162198067E0
1.425354421E1,-3.112462163E-1,8.011298180E0,5.313032627E0
1.426354414E1,-2.082955539E-1,7.908347607E0,5.406406879E0
1.427354411E1,-1.532289088E-1,7.728782177E0,5.382464886E0
1.428354411E1,-2.418143749E-1,7.659350395E0,5.248389244E0
1.429354414E1,-2.968810201E-1,7.666532993E0,5.102343082E0
1.430354414E1,-2.968810201E-1,7.755118370E0,4.956296921E0
1.431354411E1,-2.561795712E-1,7.932289600E0,4.951508522E0
1.432354414E1,-9.337386489E-2,7.996932983E0,5.059247494E0
1.433354417E1,7.422025502E-2,7.822156429E0,5.210082054E0
1.434354414E1,-7.182605099E-3,7.630620003E0,5.339369297E0
1.435354414E1,-2.705447972E-1,7.630620003E0,5.394435883E0
1.436354420E1,-4.309563041E-1,7.826944828E0,5.420772076E0
1.437354424E1,-5.171475410E-1,7.925107002E0,5.399224281E0
1.438354417E1,-5.410895944E-1,8.056788445E0,5.415983677E0
1.439354417E1,-5.698199868E-1,8.291419983E0,5.478232861E0
1.440354417E1,-4.908113480E-1,8.468590736E0,5.657797813E0
1.441354414E1,-3.615244627E-1,8.468590736E0,5.813420773E0
1.442354414E1,-3.375824392E-1,8.339303970E0,5.949890614E0
1.443354414E1,-4.788403511E-1,8.250718117E0,6.021716595E0
1.444354417E1,-5.722141862E-1,8.305785179E0,5.981015205E0
1.445354420E1,-4.453215301E-1,8.564358711E0,6.117484570E0
1.446354417E1,-3.639186621E-1,8.724770546E0,6.246771336E0
1.447354417E1,-1.843535304E-1,8.614637375E0,6.349722385E0
1.448354417E1,-5.267243832E-2,8.396764755E0,6.510133743E0
1.449354423E1,-1.340752989E-1,8.274660110E0,6.510133743E0
1.450354427E1,-3.112462163E-1,8.248324394E0,6.241982937E0
1.451354423E1,-4.501099288E-1,8.384793282E0,5.925948620E0
1.452354423E1,-5.434837937E-1,8.607454300E0,5.878064632E0
1.453354427E1,-4.357447028E-1,8.760683060E0,6.045658588E0
1.454354423E1,-2.849099934E-1,8.679280281E0,6.306626320E0
1.455354420E1,-1.819593310E-1,8.300996780E0,6.445490360E0
1.456354420E1,-2.537853718E-1,7.965808392E0,6.428730965E0
1.457354423E1,-4.596867263E-1,7.915530205E0,6.222829342E0
1.458354426E1,-6.033388376E-1,8.145373344E0,6.052841187E0
1.459354423E1,-6.009446383E-1,8.399158478E0,5.983409405E0
1.460354426E1,-5.123591423E-1,8.571541786E0,6.119878769E0
1.461354430E1,-2.513911724E-1,8.480561256E0,6.246771336E0
1.462354360E1,2.873042040E-2,7.968202591E0,6.275501728E0
1.463354290E1,-1.340752989E-1,7.424718857E0,6.177339554E0
1.464354203E1,-4.070142806E-1,7.302614689E0,5.940313816E0
1.465354140E1,-5.578489900E-1,7.666532993E0,5.681739807E0
1.466354066E1,-4.525041282E-1,8.042423248E0,5.650615215E0
1.467353976E1,-3.064578176E-1,8.320150375E0,5.732017994E0
1.468353909E1,-1.843535304E-1,8.336909294E0,5.902006626E0
1.469353909E1,-1.197100878E-1,8.013691902E0,6.045658588E0
1.470353846E1,-2.466027737E-1,7.587524414E0,5.928342819E0
1.471353846E1,-5.171475410E-1,7.419930458E0,5.748777390E0
1.472353899E1,-6.536170840E-1,7.644985199E0,5.535693645E0
1.473353906E1,-5.315127969E-1,7.949048996E0,5.382464886E0
1.474353902E1,-4.046200812E-1,8.154950142E0,5.363311291E0
1.475353899E1,-2.657563984E-1,8.274660110E0,5.451896667E0
1.476353902E1,-1.795651317E-1,8.317755699E0,5.600337029E0
1.477353899E1,-9.816227108E-2,8.142979622E0,5.799055576E0
1.478353899E1,-1.101332754E-1,7.829339027E0,5.913977623E0
1.479353892E1,-2.968810201E-1,7.714416981E0,5.928342819E0
1.480353892E1,-4.740519226E-1,7.788637638E0,5.890035629E0
1.481353896E1,-5.674257874E-1,8.016086578E0,5.679345608E0
1.482353892E1,-5.674257874E-1,8.391976357E0,5.554847240E0
1.483353896E1,-3.423708379E-1,8.617031097E0,5.600337029E0
1.484353899E1,-1.053448766E-1,8.391976357E0,5.717652798E0
1.485353899E1,-1.604115069E-1,7.951443195E0,5.894824028E0
1.486353902E1,-2.920926213E-1,7.716811180E0,5.911583424E0
1.487353899E1,-5.506663918E-1,7.723993778E0,5.803843975E0
1.488353899E1,-6.584054828E-1,7.994538784E0,5.643432617E0
1.489353902E1,-5.841852427E-1,8.150161743E0,5.473444462E0
1.490353899E1,-5.578489900E-1,8.298602104E0,5.384859085E0
1.491353895E1,-4.525041282E-1,8.310573578E0,5.406406879E0
1.492353962E1,-2.729389966E-1,8.075942039E0,5.468656063E0
1.493354032E1,-2.154781520E-1,7.666532993E0,5.581183434E0
1.494354118E1,-4.333505034E-1,7.568370819E0,5.576395035E0
1.495354182E1,-6.224924326E-1,7.855675220E0,5.411195278E0
1.496354252E1,-5.554547906E-1,8.164526939E0,5.226841450E0
1.497354342E1,-2.849099934E-1,8.382399559E0,5.181351662E0
1.498354408E1,-1.197100878E-1,8.348880768E0,5.301061630E0
1.499354405E1,-1.723825186E-1,8.080730438E0,5.317821026E0
1.500354468E1,-4.094084799E-1,7.343316078E0,4.999392509E0
1.501354468E1,-9.313444495E-1,7.427113056E0,5.353734493E0
1.502354412E1,-8.643068075E-1,8.166921616E0,5.626673222E0
1.503354405E1,-3.926490843E-1,8.787019730E0,5.954679012E0
1.504354408E1,-1.388636976E-1,9.057564735E0,6.368875980E0
1.505354408E1,1.077390760E-1,8.605060577E0,6.285078526E0
1.506354405E1,1.675941236E-2,7.922712803E0,5.918766022E0
1.507354405E1,-2.657563984E-1,7.309797287E0,5.990592003E0
1.508354411E1,-4.381389022E-1,7.175721645E0,6.208464146E0
1.509354415E1,-4.764461517E-1,7.338527679E0,6.119878769E0
1.510354411E1,-4.644751251E-1,7.628225803E0,5.700893402E0
1.511354414E1,-4.333505034E-1,7.965808392E0,5.174169064E0
1.512354418E1,-3.734954596E-1,8.238747597E0,4.975450516E0
1.513354411E1,-1.077390760E-1,8.511686325E0,5.097554684E0
1.514354408E1,3.782838583E-1,8.324938774E0,5.430348873E0
1.515354408E1,5.003881454E-1,7.800608635E0,5.609913826E0
1.516354408E1,1.412578970E-1,7.652167797E0,5.418377876E0
1.517354411E1,-3.351882398E-1,7.975385189E0,5.064035892E0
1.518354411E1,-3.639186621E-1,8.281843185E0,5.023334503E0
1.519354411E1,-1.675941199E-1,8.293813705E0,5.193322659E0
1.520354414E1,-1.077390760E-1,8.202834129E0,5.437531471E0
1.521354414E1,-1.029506698E-1,8.119037628E0,5.693710804E0
1.522354418E1,-1.508347094E-1,7.982567787E0,5.820603371E0
1.523354414E1,-1.508347094E-1,7.745541573E0,5.844545841E0
1.524354418E1,-2.154781520E-1,7.647379398E0,5.767930984E0
1.525354421E1,-3.567360640E-1,7.762300968E0,5.643432617E0
1.526354417E1,-4.836287498E-1,8.102277756E0,5.504569054E0
1.527354414E1,-4.070142806E-1,8.442254066E0,5.454290867E0
1.528354414E1,-1.484405100E-1,8.435071945E0,5.569212437E0
1.529354417E1,5.985504389E-2,7.961019993E0,5.700893402E0
1.530354417E1,-1.053448766E-1,7.479785442E0,5.609913826E0
1.531354414E1,-5.698199868E-1,7.273883820E0,5.334580898E0
1.532354417E1,-8.930372596E-1,7.561188221E0,5.164592266E0
1.533354420E1,-8.499416113E-1,8.011298180E0,5.171774864E0
1.534354417E1,-5.482721925E-1,8.286631584E0,5.392041683E0
1.535354417E1,-3.495534360E-1,8.377611160E0,5.674557209E0
1.536354424E1,-2.729389966E-1,8.267477989E0,5.825392246E0
1.537354427E1,-3.088520169E-1,8.006509781E0,5.763142586E0
1.538354420E1,-3.447650373E-1,7.886799812E0,5.624279022E0
1.539354417E1,-6.416460276E-1,7.872434616E0,5.509357452E0
1.540354420E1,-8.355764151E-1,8.078335762E0,5.502174854E0
1.541354414E1,-7.517793179E-1,8.320150375E0,5.643432617E0
1.542354414E1,-5.530605912E-1,8.339303970E0,5.832574844E0
1.543354414E1,-3.567360640E-1,8.370428085E0,5.961861610E0
1.544354417E1,-3.830722570E-1,8.226776123E0,6.002563000E0
1.545354420E1,-3.399766386E-1,7.913136005E0,5.964255810E0
1.546354417E1,-3.926490843E-1,7.810185432E0,5.964255810E0
1.547354420E1,-6.679822803E-1,8.025663376E0,5.933131218E0
1.548354420E1,-7.278373241E-1,8.356062889E0,5.906795025E0
1.549354417E1,-6.272808313E-1,8.542811394E0,5.911583424E0
1.550354413E1,-4.884171486E-1,8.533234596E0,5.882853031E0
1.551354413E1,-3.399766386E-1,8.346486092E0,5.878064632E0
1.552354416E1,-1.843535304E-1,8.066365242E0,5.866093636E0
1.553354420E1,-1.771709323E-1,7.841310024E0,5.837363243E0
1.554354416E1,-4.046200812E-1,7.767089367E0,5.870882034E0
1.555354416E1,-5.530605912E-1,7.791031837E0,5.794267178E0
1.556354420E1,-5.817909837E-1,7.843704224E0,5.753565788E0
1.557354420E1,-5.937620401E-1,8.018480301E0,5.880458832E0
1.558354423E1,-5.123591423E-1,8.126219749E0,5.930737019E0
1.559354420E1,-4.836287498E-1,7.996932983E0,5.997774601E0
1.560354423E1,-6.057330370E-1,7.661744595E0,6.081571579E0
1.561354426E1,-8.930372596E-1,7.405565262E0,6.057629585E0
1.562354370E1,-1.165976286E0,7.556399822E0,5.741594791E0
1.563354400E1,-1.051054597E0,7.949048996E0,5.363311291E0
1.564354336E1,-6.488286853E-1,8.147768021E0,5.272331238E0
1.565354269E1,-2.489969730E-1,8.042423248E0,5.360917091E0
1.566354176E1,-2.011129409E-1,7.819762230E0,5.430348873E0
1.567354176E1,-4.572925270E-1,7.791031837E0,5.564424038E0
1.568354113E1,-5.171475410E-1,8.047211647E0,5.772719383E0
1.569354113E1,-3.280056417E-1,8.387187958E0,6.045658588E0
1.570354043E1,-1.604115069E-1,8.554781914E0,6.277895927E0
1.571354049E1,-2.873042040E-2,8.523657799E0,6.371270180E0
1.572353979E1,-1.197100878E-1,8.449437141E0,6.311414719E0
1.573353979E1,-2.394201607E-2,8.284236908E0,6.052841187E0
1.574353976E1,-2.633621916E-2,8.111854553E0,5.770325184E0
1.575353972E1,1.915361360E-2,7.925107002E0,5.511751652E0
1.576353976E1,2.633621916E-2,7.929895401E0,5.231629848E0
1.577353969E1,-1.388636976E-1,8.344092369E0,5.013757706E0
1.578353966E1,-1.364694983E-1,8.798990250E0,4.903624535E0
1.579353966E1,5.267243832E-2,9.079112053E0,4.927566528E0
1.580353969E1,3.591302633E-1,8.959402084E0,5.068824291E0
1.581353906E1,5.051765442E-1,8.499714851E0,5.210082054E0
1.582353899E1,3.040636182E-1,8.133402824E0,5.236418247E0
1.583353902E1,7.182604820E-2,8.047211647E0,5.243600845E0
1.584353905E1,-1.651999205E-1,8.303390503E0,5.145438671E0
1.585353902E1,-4.788403399E-3,8.535628319E0,5.078401089E0
1.586353902E1,4.716577232E-1,8.502109528E0,5.092766285E0
1.587353902E1,4.764461517E-1,8.466196060E0,4.917989731E0
1.588353902E1,5.051765442E-1,8.279448509E0,4.805162907E0
1.589353905E1,4.094084799E-1,8.193257332E0,4.747702122E0
1.590353902E1,4.525041282E-1,8.150161743E0,4.740519524E0
1.591353902E1,4.908113480E-1,8.145373344E0,4.699818134E0
1.592353962E1,3.351882398E-1,8.221987724E0,4.630385876E0
1.593353928E1,2.035071403E-1,8.305785179E0,4.565742493E0
1.594353992E1,6.224924326E-2,8.384793282E0,4.539406300E0
1.595354058E1,7.182605099E-3,8.540416718E0,4.649539471E0
1.596354148E1,2.370259613E-1,8.470984459E0,4.910807133E0
1.597354148E1,4.022258818E-1,8.090307236E0,5.245995045E0
1.598354212E1,1.651999205E-1,7.882011414E0,5.387253284E0
1.599354215E1,-1.292868853E-1,7.999327183E0,5.325003624E0
1.600354285E1,-1.771709323E-1,8.408735275E0,5.178957462E0
1.601354278E1,2.106897533E-1,8.538022995E0,5.174169064E0
1.602354345E1,4.860229492E-1,8.358457565E0,5.245995045E0
1.603354345E1,4.884171486E-1,8.020874977E0,5.351340294E0
1.604354348E1,2.178723514E-1,7.915530205E0,5.370493889E0
1.605354352E1,6.224924326E-2,8.114249229E0,5.336975098E0
1.606354348E1,7.900865376E-2,8.430283546E0,5.219658852E0
1.607354351E1,3.351882398E-1,8.700828552E0,5.080795288E0
1.608354355E1,5.722141862E-1,8.705616951E0,4.958691120E0
1.609354355E1,3.998316824E-1,8.787019730E0,4.987421513E0
1.610354351E1,2.801215947E-1,8.806173325E0,5.068824291E0
1.611354421E1,4.285621047E-1,8.746317863E0,4.577713490E0
1.612354425E1,7.996633649E-1,8.612242699E0,5.930737019E0
1.613354418E1,8.092401624E-1,8.121431351E0,7.362469673E0
1.614354414E1,4.453215301E-1,8.384793282E0,7.429507256E0
1.615354418E1,6.847416759E-1,8.971372604E0,7.130231857E0
1.616354414E1,1.010353088E0,9.198822021E0,6.474220753E0
1.617354414E1,1.118092179E0,9.215581894E0,5.308244228E0
1.618354411E1,8.595184088E-1,8.870816231E0,4.316745758E0
1.619354411E1,4.860229492E-1,8.394370079E0,3.859453201E0
1.620354414E1,-4.357447028E-1,8.087912560E0,4.165910721E0
1.621354411E1,2.154781483E-2,8.248324394E0,4.666299343E0
1.622354408E1,1.915361360E-2,8.581118584E0,5.080795288E0
1.623354408E1,-5.027823523E-2,8.803778648E0,5.269937038E0
1.624354414E1,1.221042871E-1,8.760683060E0,5.193322659E0
1.625354417E1,4.979939461E-1,8.463802338E0,5.006575108E0
1.626354414E1,6.081272364E-1,8.188468933E0,4.735731125E0
1.627354414E1,4.740519226E-1,8.059182167E0,4.431667328E0
1.628354417E1,4.165911078E-1,7.980173588E0,4.259284973E0
1.629354414E1,3.519476354E-1,7.963414192E0,4.302380562E0
1.630354414E1,4.477157295E-1,7.982567787E0,4.548983097E0
1.631354414E1,3.423708379E-1,8.226776123E0,4.888959885E0
1.632354417E1,2.394201756E-1,8.535628319E0,5.152621269E0
1.633354421E1,2.873041928E-1,8.600272179E0,5.411195278E0
1.634354417E1,3.615244627E-1,8.427888870E0,5.593154430E0
1.635354414E1,2.992752194E-1,8.104672432E0,5.732017994E0
1.636354420E1,-9.337386489E-2,8.032846451E0,5.732017994E0
1.637354420E1,-4.141969085E-1,8.205228806E0,5.787084579E0
1.638354417E1,-4.525041282E-1,8.300996780E0,5.866093636E0
1.639354417E1,-1.340752989E-1,8.142979622E0,6.160580158E0
1.640354420E1,-1.436521020E-2,7.800608635E0,6.313809395E0
1.641354414E1,-7.661445439E-2,7.525275230E0,6.361693382E0
1.642354414E1,-3.112462163E-1,7.582736015E0,6.277895927E0
1.643354414E1,-5.937620401E-1,7.910741806E0,5.992986202E0
1.644354417E1,-7.278373241E-1,8.233959198E0,5.813420773E0
1.645354417E1,-6.177040339E-1,8.320150375E0,5.755959988E0
1.646354417E1,-4.405331016E-1,8.224382401E0,5.811026573E0
1.647354423E1,-4.596867263E-1,8.047211647E0,5.787084579E0
1.648354427E1,-5.554547906E-1,8.059182167E0,5.710470200E0
1.649354423E1,-3.950432837E-1,7.987356186E0,5.636250019E0
1.650354420E1,-3.016694188E-1,7.783848763E0,5.664980412E0
1.651354420E1,-4.237737060E-1,7.728782177E0,5.657797813E0
1.652354420E1,-6.727706790E-1,7.929895401E0,5.669768810E0
1.653354423E1,-6.440402865E-1,8.166921616E0,5.727229595E0
1.654354416E1,-3.687070608E-1,8.049605370E0,5.863699436E0
1.655354416E1,-1.747767180E-1,7.855675220E0,6.189310551E0
1.656354420E1,-1.340752989E-1,7.788637638E0,6.455067158E0
1.657354416E1,-2.298433632E-1,7.819762230E0,6.603507519E0
1.658354416E1,-3.471592367E-1,7.831733227E0,6.512527943E0
1.659354416E1,-4.237737060E-1,7.965808392E0,6.309020519E0
1.660354416E1,-4.692635238E-1,8.260294914E0,6.009745598E0
1.661354420E1,-3.495534360E-1,8.391976357E0,5.705681801E0
1.662354350E1,-2.753331959E-1,8.219594002E0,5.641038418E0
1.663354280E1,-2.202665508E-1,7.941866398E0,5.638644218E0
1.664354193E1,-2.418143749E-1,7.707234383E0,5.708076000E0
1.665354130E1,-3.519476354E-1,7.501333237E0,5.784690380E0
1.666354036E1,-5.075707436E-1,7.604283810E0,5.827786446E0
1.667353946E1,-6.655880809E-1,7.805397034E0,5.954679012E0
1.668353883E1,-5.626373887E-1,7.810185432E0,6.103119373E0
1.669353816E1,-5.003881454E-1,7.728782177E0,6.146214962E0
1.670353813E1,-6.344634295E-1,7.716811180E0,6.153397560E0
1.671353813E1,-5.219359994E-1,7.568370819E0,5.961861610E0
1.672353816E1,-4.979939461E-1,7.448660851E0,5.703287601E0
1.673353823E1,-4.572925270E-1,7.352892876E0,5.597942829E0
1.674353823E1,-3.950432837E-1,7.415142059E0,5.593154430E0
1.675353823E1,-3.734954596E-1,7.522881031E0,5.672163010E0
1.676353829E1,-3.303998411E-1,7.551611423E0,5.806238174E0
