"Time (s)","Gyroscope x (rad/s)","Gyroscope y (rad/s)","Gyroscope z (rad/s)"
1.533893500E-2,-9.178250283E-2,1.902081668E-1,-7.124216110E-2
2.733893500E-2,-9.178250283E-2,1.902081668E-1,-7.124216110E-2
3.733893500E-2,-9.178250283E-2,1.902081668E-1,-7.124216110E-2
4.733893500E-2,-9.178250283E-2,1.902081668E-1,-7.124216110E-2
5.733893500E-2,-9.178250283E-2,1.902081668E-1,-7.124216110E-2
6.733893500E-2,-9.178250283E-2,1.902081668E-1,-7.124216110E-2
7.733893500E-2,-9.178250283E-2,1.902081668E-1,-7.124216110E-2
8.733693500E-2,-1.437060535E-1,-1.213331074E-1,8.781188168E-3
9.733693500E-2,-2.157881409E-1,-1.152244583E-1,-2.970332280E-2
1.073369350E-1,-2.622139156E-1,-9.384417534E-2,-5.963572115E-2
1.173356010E-1,-2.866485119E-1,-4.375322163E-2,-1.097266674E-1
1.273335010E-1,-2.438879460E-1,2.160935849E-2,-1.249983013E-1
1.373335010E-1,-1.840231568E-1,6.314819306E-2,-1.146135926E-1
1.473335010E-1,-1.369865239E-1,7.841982692E-2,-1.201113760E-1
1.573335010E-1,-1.192714423E-1,5.093089119E-2,-1.359938681E-1
1.673335010E-1,-1.357648075E-1,-8.933904581E-3,-1.579850167E-1
1.773335010E-1,-1.846340150E-1,-9.078984708E-2,-1.903608888E-1
1.873335010E-1,-2.347249687E-1,-2.025781870E-1,-2.105194330E-1
1.973335010E-1,-2.622139156E-1,-3.308598995E-1,-2.105194330E-1
2.073335010E-1,-2.554943860E-1,-4.450916946E-1,-2.105194330E-1
2.173335010E-1,-2.182316035E-1,-4.976260960E-1,-2.294562608E-1
2.273335010E-1,-1.925752759E-1,-4.579198658E-1,-2.202932835E-1
2.373335010E-1,-1.638645977E-1,-3.595705628E-1,-1.714240611E-1
2.473335010E-1,-1.302670091E-1,-2.373975068E-1,-1.060614809E-1
2.573335010E-1,-1.125519201E-1,-1.304960847E-1,-5.291620269E-2
2.673335010E-1,-1.003346145E-1,-7.368562371E-2,-2.176207490E-2
2.773335010E-1,-9.605856240E-2,-5.963572115E-2,-2.214386594E-3
2.873335010E-1,-1.168279797E-1,-8.407033235E-2,-8.933904581E-3
2.973335010E-1,-1.699732542E-1,-1.231657043E-1,-2.176207490E-2
3.073335010E-1,-3.190243840E-1,-2.257910669E-1,2.290744742E-4
3.173335010E-1,-4.375322461E-1,-4.176027477E-1,1.315651089E-1
3.273335010E-1,-5.829181671E-1,-6.998224854E-1,3.655264974E-1
3.373335010E-1,-7.038694620E-1,-8.678104281E-1,5.585598946E-1
3.473335010E-1,-7.564038634E-1,-8.678104281E-1,6.446918845E-1
3.573335010E-1,-6.244570017E-1,-7.932848930E-1,6.758460402E-1
3.673335010E-1,-3.715587854E-1,-7.297548652E-1,5.506186485E-1
3.773335010E-1,-2.420553565E-1,-7.535786629E-1,2.928335369E-1
3.873339010E-1,-3.336851299E-1,-8.293259144E-1,-1.158353239E-1
3.973339010E-1,-8.248208165E-1,-1.102993608E0,-7.517460585E-1
4.073339010E-1,-1.221272349E0,-1.140867233E0,-1.016861558E0
4.173343010E-1,-1.606117487E0,-8.800277710E-1,-1.142699838E0
4.273350010E-1,-1.982410431E0,-4.194353521E-1,-1.060232997E0
4.373350010E-1,-2.267684460E0,-5.879578181E-3,-9.197340012E-1
4.473350010E-1,-2.294562578E0,3.221550584E-1,-8.372671604E-1
4.573350010E-1,-1.986686468E0,3.917936981E-1,-8.507062197E-1
4.673350010E-1,-1.480279207E0,1.089630872E-1,-9.374490976E-1
4.773350010E-1,-8.516988754E-1,-5.501605272E-1,-1.106047869E0
4.873350010E-1,1.641700417E-1,-1.737071633E0,-1.558699012E0
4.973350010E-1,6.473644376E-1,-2.576400518E0,-1.700419784E0
5.073350010E-1,9.772316813E-1,-3.497585297E0,-1.576414108E0
5.173350010E-1,1.283275127E0,-4.252614975E0,-1.909335732E0
5.273350010E-1,1.319927096E0,-4.707098484E0,-2.218433380E0
5.373350010E-1,1.318094492E0,-4.846375942E0,-1.906281352E0
5.473350340E-1,1.102459073E0,-5.264207840E0,-1.110323906E0
5.573350340E-1,7.060074806E-1,-6.013128281E0,4.909829423E-2
5.673350340E-1,7.799221873E-1,-6.179894447E0,8.920923471E-1
5.773350340E-1,1.577712178E0,-5.666767597E0,1.141325355E0
5.873350340E-1,2.305252790E0,-5.933104992E0,8.566621542E-1
5.973350340E-1,3.111594915E0,-6.115753651E0,6.013205051E-1
6.073350340E-1,4.211152077E0,-6.063830376E0,6.000987291E-1
6.173350340E-1,5.284442425E0,-5.592242241E0,8.212319613E-1
6.273350340E-1,6.231283665E0,-4.999702930E0,1.140714526E0
6.373350340E-1,7.085273266E0,-4.470693588E0,1.590311289E0
6.473350340E-1,7.762112141E0,-3.919693232E0,2.119931459E0
6.573350340E-1,8.222093582E0,-3.383353472E0,2.558532715E0
6.673350340E-1,8.691238403E0,-1.902005315E0,2.928106308E0
6.773343340E-1,9.098685265E0,7.149413824E-1,3.246366978E0
6.873334670E-1,9.382126808E0,3.655035734E0,3.752163410E0
6.973329670E-1,9.383348465E0,6.389879704E0,4.378911018E0
7.073324670E-1,9.451154709E0,6.744181156E0,5.024595737E0
7.173319670E-1,9.381515503E0,6.425309658E0,5.722814560E0
7.273315000E-1,9.027824402E0,5.749692917E0,6.319019318E0
7.373310000E-1,7.969806194E0,4.194429874E0,6.515717983E0
7.473309660E-1,5.757252216E0,1.356349945E0,6.109492302E0
7.573309320E-1,3.101820946E0,1.684995413E0,5.086293221E0
7.673309650E-1,1.685224533E0,3.806530476E0,4.532849312E0
7.773309650E-1,2.564106882E-1,4.879209995E0,3.988568306E0
7.873309310E-1,-8.956811428E-1,5.204801083E0,3.579899311E0
7.973309640E-1,-1.638493299E0,5.034369469E0,3.330666304E0
8.073309640E-1,-2.045940399E0,4.790023327E0,3.205439091E0
8.173309300E-1,-2.212095737E0,4.857218742E0,3.206660748E0
8.273308960E-1,-2.247525930E0,5.008713245E0,3.305620909E0
8.373308620E-1,-2.207819700E0,5.147379398E0,3.340440273E0
8.473308280E-1,-2.066098928E0,5.488853455E0,3.168787003E0
8.573308280E-1,-1.965917110E0,6.085668564E0,3.029509783E0
8.673307940E-1,-1.881617665E0,6.801602840E0,2.898173809E0
8.773307940E-1,-1.791209579E0,7.298847198E0,2.684981823E0
8.873307940E-1,-1.657430172E0,6.915223598E0,2.326403856E0
8.973307600E-1,-1.551750422E0,5.816277027E0,1.954386950E0
9.073307600E-1,-1.486998677E0,4.551785946E0,1.646510959E0
9.173307260E-1,-1.415527463E0,3.476052284E0,1.389336586E0
9.273307260E-1,-1.349554062E0,2.716135979E0,1.161483884E0
9.373307260E-1,-1.270752430E0,2.096107721E0,8.627707958E-1
9.473306920E-1,-1.083216786E0,2.058233976E0,6.550766230E-1
9.573306920E-1,-6.910412908E-1,2.642221212E0,4.522693455E-1
9.673306920E-1,2.545780838E-1,4.187099457E0,-7.712173741E-3
9.773306920E-1,4.064544678E0,1.039226818E1,-1.709582806E0
9.873315580E-1,6.159812450E0,1.330426311E1,-2.336941242E0
9.973313580E-1,6.694319725E0,1.348874474E1,-2.298456907E0
1.007331191E0,7.248985291E0,1.350157261E1,-2.243479013E0
1.017332657E0,8.012566566E0,1.307213402E1,-2.228818178E0
1.027332423E0,1.049267960E1,-1.361473560E1,-1.388878465E0
1.037332923E0,2.114051819E0,-1.991703224E1,-1.306411743E0
1.047332289E0,-3.678936064E-1,-4.403498650E0,-2.533639908E0
1.111936423E0,-2.703078650E-2,-1.005636901E-1,-5.413793400E-2
1.123602697E0,-2.703078650E-2,-1.005636901E-1,-5.413793400E-2
1.133601697E0,-2.703078650E-2,-1.005636901E-1,-5.413793400E-2
1.143601697E0,-2.703078650E-2,-1.005636901E-1,-5.413793400E-2
1.153261697E0,-2.703078650E-2,-1.005636901E-1,-5.413793400E-2
1.163008697E0,9.880745411E-2,2.466368489E-2,1.672243699E-2
1.172808697E0,9.086620808E-2,1.427897532E-2,-3.436116967E-3
1.182642030E0,7.987063378E-2,3.283400787E-3,-2.909245715E-2
1.192499030E0,6.704246253E-2,-2.825251780E-3,-6.269004941E-2
1.202373905E0,4.932736978E-2,-2.787072770E-2,-8.529205620E-2
1.212262682E0,3.772092983E-2,-5.963572115E-2,-8.162686974E-2
1.222162782E0,3.283400834E-2,-9.750936180E-2,-6.330090761E-2
1.232071872E0,2.855795063E-2,-1.085049361E-1,-3.764457256E-2
1.241988455E0,3.527746722E-2,-5.963572115E-2,1.450804994E-3
1.251911455E0,3.161227703E-2,-1.626428775E-2,2.344195358E-2
1.261840026E0,2.306016348E-2,3.443752974E-2,4.421137273E-2
1.271773292E0,1.145372353E-2,6.742425263E-2,5.337435007E-2
1.281710729E0,2.290744567E-3,8.330674469E-2,4.970915988E-2
1.291651846E0,-1.527163113E-4,8.575020730E-2,4.482223839E-2
1.301596290E0,4.581489484E-4,6.314819306E-2,4.787656292E-2
1.311543658E0,2.290744567E-3,2.222022414E-2,5.337435007E-2
1.321493608E0,1.145372353E-2,-1.015563495E-2,4.298964143E-2
1.331446036E0,3.100141138E-2,-2.298380435E-2,1.488984004E-2
1.341400581E0,4.321871698E-2,-8.323038928E-3,8.170322515E-3
1.351357059E0,4.444044828E-2,2.061670180E-3,1.672243699E-2
1.361315392E0,3.466660157E-2,1.366810966E-2,3.565925732E-2
1.371275352E0,2.000583708E-2,3.199406713E-2,5.642867833E-2
1.381236890E0,7.177666761E-3,4.176791012E-2,5.520694703E-2
1.391199852E0,4.734205548E-3,4.115704447E-2,3.138320148E-2
1.401164102E0,1.145372353E-2,3.932445124E-2,-3.436116967E-3
1.411129619E0,1.939497143E-2,3.382666409E-2,-3.459024429E-2
1.421096285E0,2.977968007E-2,-2.054034360E-2,-3.947716579E-2
1.431062985E0,2.977968007E-2,-7.307475805E-2,-2.909245715E-2
1.441029618E0,3.344487399E-2,-1.127809957E-1,-1.992947794E-2
1.451030251E0,3.711006418E-2,-1.256091595E-1,-2.298380435E-2
1.461030651E0,3.466660157E-2,-1.048397496E-1,-2.848159149E-2
1.471030651E0,1.878410578E-2,-6.269004941E-2,-1.809688285E-2
1.481030617E0,-1.527163113E-4,-2.054034360E-2,-4.657847341E-3
1.491030650E0,-8.704829961E-3,1.855503209E-2,7.559457328E-3
1.501030683E0,4.581489484E-4,5.154175684E-2,1.611157134E-2
1.511030683E0,2.733621933E-2,8.208502084E-2,3.993531689E-2
1.521030616E0,3.222314268E-2,7.170030475E-2,5.948300287E-2
1.531030582E0,3.222314268E-2,3.260493279E-2,5.887213722E-2
1.541030615E0,3.894266114E-2,-1.870774850E-2,3.199406713E-2
1.551030615E0,4.382958263E-2,-6.146831438E-2,-6.490443368E-3
1.561030581E0,4.627304152E-2,-9.017898142E-2,-2.603813075E-2
1.571030614E0,3.283400834E-2,-8.712465316E-2,-1.870774850E-2
1.581030647E0,1.267545391E-2,-7.368562371E-2,8.781188168E-3
1.591030647E0,-9.926560335E-3,-2.787072770E-2,3.138320148E-2
1.601030613E0,-3.619376570E-2,8.697193861E-2,3.932445124E-2
1.611030646E0,-4.963280261E-2,1.590540409E-1,3.199406713E-2
1.621030012E0,-5.879577994E-2,1.895972937E-1,2.038762718E-2
1.631029278E0,-6.062837690E-2,1.639409661E-1,4.505131394E-3
1.641029278E0,-5.390885845E-2,8.575020730E-2,-1.137736533E-2
1.651028644E0,-3.436116874E-2,-1.259909570E-2,-3.031418845E-2
1.661027744E0,-1.908953860E-2,-9.812022746E-2,-4.008803144E-2
1.671027077E0,-1.481348183E-2,-1.683697402E-1,-2.848159149E-2
1.681026377E0,-1.298088674E-2,-2.190715522E-1,-1.137736533E-2
1.691026243E0,-3.817907767E-3,-1.958586723E-1,-1.504255645E-2
1.701026309E0,-3.817907767E-3,-1.958586723E-1,-1.504255645E-2
1.711026309E0,-3.817907767E-3,-1.958586723E-1,-1.504255645E-2
1.721026075E0,-3.817907767E-3,-1.958586723E-1,-1.504255645E-2
1.731026075E0,-3.817907767E-3,-1.958586723E-1,-1.504255645E-2
1.741026075E0,-1.725694351E-2,1.676061451E-1,7.536549866E-2
1.751026075E0,1.679879380E-3,1.120174155E-1,2.832887508E-2
1.761026041E0,2.794708498E-2,5.093089119E-2,-2.909245715E-2
1.771026041E0,3.100141138E-2,-1.603521290E-3,-6.940956414E-2
1.781026074E0,-5.650503561E-3,-8.345946670E-2,-8.529205620E-2
1.791026040E0,-4.718934000E-2,-1.262200326E-1,-8.345946670E-2
1.801026040E0,-7.956519723E-2,-1.414916664E-1,-6.757696718E-2
1.811026073E0,-1.021672115E-1,-1.304960847E-1,-4.619668424E-2
1.821026073E0,-1.168279797E-1,-7.307475805E-2,-2.664899640E-2
1.831026106E0,-1.296561509E-1,1.061378326E-2,-1.320996135E-2
1.841026072E0,-1.290452778E-1,9.980010986E-2,-2.214386594E-3
1.851026105E0,-1.033889428E-1,1.786017269E-1,2.283108793E-2
1.861026138E0,-6.551529467E-2,2.372447848E-1,6.131559983E-2
1.871026104E0,-2.336559631E-2,2.280818075E-1,9.430231899E-2
1.881026104E0,-1.374446787E-3,1.627192348E-1,6.620252132E-2
1.891026137E0,2.000583708E-2,7.719809562E-2,1.122464892E-2
1.901026137E0,3.466660157E-2,2.290744742E-4,-2.970332280E-2
1.911026070E0,2.733621933E-2,-6.207918003E-2,-2.848159149E-2
1.921026703E0,3.512475174E-3,-1.127809957E-1,-9.926559869E-4
1.931027436E0,-1.359175146E-2,-1.384373307E-1,1.122464892E-2
1.941027402E0,-1.237002108E-2,-1.237765700E-1,-1.015563495E-2
1.951028035E0,-8.093964309E-3,-6.818783283E-2,-3.825543448E-2
1.961028935E0,-2.275473066E-2,5.337435007E-2,-1.603521290E-3
1.971029635E0,-5.329799280E-2,1.034653038E-1,4.665483162E-2
1.981030301E0,-7.162395120E-2,1.224021241E-1,4.970915988E-2
1.991030401E0,-5.574145541E-2,1.199586615E-1,6.337726954E-3
2.001030334E0,-2.214386500E-2,1.059087589E-1,-3.336851299E-2
2.011030334E0,7.788531948E-3,6.925684959E-2,-3.031418845E-2
2.021030534E0,2.367102914E-2,6.337726954E-3,8.170322515E-3
2.031030500E0,2.977968007E-2,-6.207918003E-2,4.665483162E-2
2.041030533E0,2.977968007E-2,-9.628763795E-2,4.298964143E-2
2.051030533E0,2.183843218E-2,-7.307475805E-2,-2.054034360E-2
2.061030533E0,1.069014193E-3,-3.581197560E-2,-4.680754989E-2
2.071030499E0,-2.458732575E-2,-7.101308554E-3,-5.169447139E-2
2.081030532E0,-4.108068720E-2,2.061670180E-3,-5.047274008E-2
2.091030565E0,-3.863722831E-2,-4.046982154E-3,-5.413793400E-2
2.101030531E0,-2.336559631E-2,-1.687515154E-2,-4.986187443E-2
2.111030564E0,-8.704829961E-3,-3.642284125E-2,-2.848159149E-2
2.121030597E0,-6.872233935E-3,-5.291620269E-2,1.122464892E-2
2.131030563E0,-1.237002108E-2,-4.253149405E-2,4.543310404E-2
2.141030563E0,-1.603521220E-2,3.199406713E-2,7.047858089E-2
2.151030529E0,-1.664607786E-2,8.147415519E-2,7.475463301E-2
2.161030529E0,-1.725694351E-2,1.132391468E-1,7.780896127E-2
2.171030562E0,-2.458732575E-2,1.254564524E-1,8.025242388E-2
2.181030528E0,-3.191770986E-2,1.248455867E-1,7.292203605E-2
2.191030528E0,-3.375030309E-2,1.052978933E-1,4.909829423E-2
2.201030561E0,-3.375030309E-2,7.170030475E-2,1.061378326E-2
2.211030561E0,-3.008511290E-2,1.916589774E-2,-2.725986205E-2
2.221030594E0,-2.764165215E-2,-4.436408728E-2,-6.024658307E-2
2.231030527E0,-3.375030309E-2,-1.347721517E-1,-7.307475805E-2
2.241030560E0,-4.230241850E-2,-1.763109863E-1,-5.902485549E-2
2.251030593E0,-4.291328415E-2,-1.824196279E-1,-4.436408728E-2
2.261030559E0,-3.619376570E-2,-1.439351290E-1,-3.581197560E-2
2.271030525E0,-2.092213556E-2,-6.024658307E-2,-2.787072770E-2
2.281030525E0,-1.114829071E-2,2.405281924E-2,-1.015563495E-2
2.291030558E0,2.901609987E-3,8.269587904E-2,2.061670180E-3
2.301030558E0,2.428189293E-2,1.181260645E-1,-7.101308554E-3
2.311030524E0,4.871650413E-2,1.382846236E-1,-7.712173741E-3
2.321030557E0,6.643159688E-2,1.187369302E-1,2.710714564E-2
2.331030590E0,5.604688451E-2,6.925684959E-2,4.787656292E-2
2.341030556E0,3.344487399E-2,9.392052889E-3,4.360050708E-2
2.351030556E0,1.023199316E-2,-2.237293869E-2,1.427897532E-2
2.361030622E0,-8.704829961E-3,-2.664899640E-2,-1.382082608E-2
2.371030655E0,-2.886338346E-2,-1.687515154E-2,-1.992947794E-2
2.381030588E0,-4.902193695E-2,3.283400787E-3,-1.504255645E-2
2.391030554E0,-6.429356337E-2,3.016147204E-2,-1.137736533E-2
2.401030587E0,-6.551529467E-2,4.970915988E-2,-1.198823005E-2
2.411030520E0,-5.574145541E-2,5.887213722E-2,-5.879578181E-3
2.421030486E0,-5.513058975E-2,5.276348442E-2,-3.817907709E-4
2.431030486E0,-6.062837690E-2,2.649627998E-2,-1.198823005E-2
2.441030519E0,-5.574145541E-2,-2.825251780E-3,-4.741841555E-2
2.451030552E0,-3.741549700E-2,-2.603813075E-2,-8.345946670E-2
2.461030518E0,-1.786780916E-2,-4.802928120E-2,-9.323330969E-2
2.471030551E0,-7.483099122E-3,-8.101600409E-2,-7.002042979E-2
2.481030584E0,-5.650503561E-3,-1.231657043E-1,-4.375322163E-2
2.491030584E0,-1.542434748E-2,-1.408807933E-1,-3.703370690E-2
2.501030550E0,-3.252857551E-2,-1.256091595E-1,-5.108360574E-2
2.511030550E0,-5.085453019E-2,-1.048397496E-1,-6.635523587E-2
2.521030550E0,-7.956519723E-2,-8.407033235E-2,-7.612907887E-2
2.531030583E0,-1.070541367E-1,-6.085744873E-2,-6.574437022E-2
2.541030549E0,-1.217148975E-1,-2.359467000E-2,-5.413793400E-2
2.551030549E0,-1.253800988E-1,8.399396902E-4,-3.520110995E-2
2.561030582E0,-1.107193232E-1,4.360050708E-2,-1.603521290E-3
2.571030582E0,-8.628471941E-2,8.513934165E-2,2.344195358E-2
2.581030615E0,-5.513058975E-2,1.236238554E-1,4.237877578E-2
2.591030581E0,-1.603521220E-2,1.657735556E-1,6.864598393E-2
2.601030614E0,-1.374446787E-3,1.731039435E-1,7.597636431E-2
2.611030647E0,5.955935922E-3,1.651626974E-1,7.536549866E-2
2.621030247E0,7.177666761E-3,1.309542358E-1,7.353290170E-2
2.631029547E0,1.679879380E-3,9.185886383E-2,7.292203605E-2
2.641029580E0,-1.420261711E-2,6.986771524E-2,6.681338698E-2
2.651028946E0,-3.985895589E-2,5.459608138E-2,5.765040591E-2
2.661028012E0,-6.001751125E-2,2.893974073E-2,3.565925732E-2
2.671027112E0,-6.979135424E-2,1.366810966E-2,2.672535367E-3
2.681027178E0,-7.590000331E-2,3.077233583E-2,-1.992947794E-2
2.691026511E0,-8.567385375E-2,5.459608138E-2,-6.490443368E-3
2.701025811E0,-9.300423414E-2,7.292203605E-2,2.527454868E-2
2.711025811E0,-9.544769675E-2,7.292203605E-2,4.115704447E-2
2.721025877E0,-8.139779419E-2,6.742425263E-2,3.382666409E-2
2.731025943E0,-6.185010448E-2,6.620252132E-2,2.672535367E-3
2.741025909E0,-4.841107130E-2,7.170030475E-2,-4.253149405E-2
2.751025875E0,-5.513058975E-2,7.047858089E-2,-8.101600409E-2
2.761025908E0,-8.689557761E-2,3.810271993E-2,-1.011745557E-1
2.771025841E0,-1.687515229E-1,-3.436116967E-3,-9.262244403E-2
2.781025807E0,-2.139555514E-1,1.450804994E-3,-1.042288840E-1
2.791025773E0,-2.383901626E-1,-1.198823005E-2,-1.347721517E-1
2.801025806E0,-2.487748712E-1,-5.841398984E-2,-1.647045463E-1
2.811025839E0,-2.652682364E-1,-1.353830099E-1,-1.989129931E-1
2.821025805E0,-2.695443034E-1,-2.086868435E-1,-2.300671190E-1
2.831025838E0,-2.707660198E-1,-2.282345295E-1,-2.483930737E-1
2.841025871E0,-2.817615867E-1,-1.866956949E-1,-2.532800138E-1
2.851025837E0,-2.952006161E-1,-1.262200326E-1,-2.325105816E-1
2.861025837E0,-2.732094824E-1,-3.214678168E-2,-1.738675237E-1
2.871025837E0,-2.341141105E-1,-9.926559869E-4,-1.414916664E-1
2.881025837E0,-1.968513280E-1,5.115996581E-3,-1.237765700E-1
2.891025903E0,-1.681406647E-1,3.283400787E-3,-1.207222417E-1
2.901025869E0,-1.553124934E-1,2.222022414E-2,-1.201113760E-1
2.911025869E0,-1.577559561E-1,5.032002553E-2,-1.182787865E-1
2.921026302E0,-1.675297916E-1,7.597636431E-2,-1.048397496E-1
2.931027002E0,-1.821905524E-1,7.841982692E-2,-8.834638447E-2
2.941026968E0,-2.072360367E-1,7.414376736E-2,-8.101600409E-2
2.951027601E0,-2.414444834E-1,1.260673106E-1,-6.879869848E-2
2.961028501E0,-2.548835278E-1,2.079232633E-1,-3.336851299E-2
2.971029401E0,-2.762638032E-1,2.928335369E-1,1.305724494E-2
2.981029334E0,-2.909245789E-1,3.630830348E-1,4.909829423E-2
2.991030034E0,-2.884811163E-1,4.034001231E-1,5.215261877E-2
3.001030734E0,-2.750420868E-1,4.088979363E-1,2.710714564E-2
3.011030734E0,-2.554943860E-1,3.667482138E-1,-5.879578181E-3
3.021030667E0,-2.286163121E-1,2.555707395E-1,-3.214678168E-2
3.031030600E0,-1.913535446E-1,1.016327068E-1,-5.902485549E-2
3.041030633E0,-1.510364264E-1,-4.986187443E-2,-1.017854214E-1
3.051030633E0,-8.200865984E-2,-2.276236564E-1,-1.585958898E-1
3.061030599E0,-3.924809024E-2,-2.935971022E-1,-1.604284793E-1
3.071030632E0,-1.664607786E-2,-3.125339448E-1,-1.237765700E-1
3.081030665E0,-1.237002108E-2,-2.838232517E-1,-7.002042979E-2
3.091030665E0,-1.786780916E-2,-2.215150148E-1,-1.443169173E-2
3.101030631E0,-1.603521220E-2,-1.518763751E-1,1.794416644E-2
3.111030664E0,-1.237002108E-2,-8.101600409E-2,3.260493279E-2
3.121030697E0,-3.313944116E-2,5.115996581E-3,5.337435007E-2
3.131030630E0,-7.467827946E-2,8.513934165E-2,8.819366992E-2
3.141030596E0,-1.571450830E-1,1.553888470E-1,1.181260645E-1
3.153544652E0,-1.895209402E-1,1.627192348E-1,1.077413559E-1
3.163544618E0,-1.803579628E-1,1.431715488E-1,7.536549866E-2
3.173544618E0,-1.461495161E-1,1.077413559E-1,3.627012298E-2
3.183544584E0,-1.107193232E-1,6.131559983E-2,7.559457328E-3
3.193544550E0,-8.811730891E-2,-5.268712528E-3,-1.137736533E-2
3.203544583E0,-6.368270516E-2,-7.979427278E-2,-1.870774850E-2
3.213544549E0,-3.313944116E-2,-1.451568604E-1,-2.237293869E-2
3.223544515E0,-2.596177394E-3,-1.848630905E-1,-1.931861416E-2
3.233544481E0,5.299255997E-2,-2.471713424E-1,-2.909245715E-2
3.243544514E0,1.006400511E-1,-3.003166318E-1,-6.024658307E-2
3.253544547E0,1.562287807E-1,-3.571271002E-1,-1.011745557E-1
3.263544513E0,2.246456891E-1,-4.169918895E-1,-1.402699351E-1
3.273544546E0,2.863430977E-1,-4.652502537E-1,-1.598176211E-1
3.283544579E0,3.248275816E-1,-4.829653203E-1,-1.384373307E-1
3.293544545E0,3.321579695E-1,-4.530329406E-1,-9.445504099E-2
3.303544511E0,3.156646192E-1,-3.760639131E-1,-4.802928120E-2
3.313544511E0,2.955060601E-1,-2.893210649E-1,-4.657847341E-3
3.323544544E0,2.875648141E-1,-2.031890452E-1,2.771801129E-2
3.333544577E0,2.918408811E-1,-1.634828150E-1,2.649627998E-2
3.343544543E0,3.003929853E-1,-1.359938681E-1,2.527454868E-2
3.353544576E0,3.107776940E-1,-1.188896447E-1,3.260493279E-2
3.363544609E0,3.217732608E-1,-1.237765700E-1,4.909829423E-2
3.373544575E0,3.364340365E-1,-1.689805984E-1,6.925684959E-2
3.383544541E0,3.565925956E-1,-2.447278947E-1,7.841982692E-2
3.393544574E0,3.779728711E-1,-3.223077655E-1,7.658722997E-2
3.403544607E0,3.901901841E-1,-4.017202556E-1,7.170030475E-2
3.413544540E0,3.828597963E-1,-5.141194463E-1,8.697193861E-2
3.423544540E0,3.663664162E-1,-5.513822436E-1,1.059087589E-1
3.433544573E0,3.407101035E-1,-5.605452061E-1,1.370628923E-1
3.443544573E0,3.107776940E-1,-5.568800569E-1,1.724930704E-1
3.453544539E0,2.826778889E-1,-5.379431844E-1,2.018146068E-1
3.463544539E0,2.527455091E-1,-5.061782002E-1,2.091449946E-1
3.473544605E0,2.191479057E-1,-4.457025528E-1,2.042580694E-1
3.483544638E0,1.824959964E-1,-3.638466001E-1,2.005928755E-1
3.493544604E0,1.434006095E-1,-2.887101769E-1,2.097558528E-1
3.503544570E0,8.109235764E-2,-1.976912618E-1,2.488512248E-1
3.513544603E0,5.787948146E-2,-1.561524272E-1,2.775619030E-1
3.523544569E0,7.070764899E-2,-1.366047412E-1,2.940552533E-1
3.533544569E0,1.134682223E-1,-1.396590620E-1,2.928335369E-1
3.543544535E0,1.763873398E-1,-1.738675237E-1,2.708423734E-1
3.553544535E0,2.557998300E-1,-2.392300963E-1,2.396882474E-1
3.563544568E0,3.462078869E-1,-3.015383482E-1,2.030363381E-1
3.573544501E0,4.298964143E-1,-3.424663246E-1,1.804343164E-1
3.583544534E0,4.775438905E-1,-3.858377635E-1,1.840995103E-1
3.593544567E0,4.928155243E-1,-4.585307240E-1,2.323578745E-1
3.603544567E0,4.763221741E-1,-4.970152378E-1,2.659554482E-1
3.613544600E0,4.610505402E-1,-5.147303343E-1,2.946661115E-1
3.623543900E0,4.628831446E-1,-5.354997516E-1,3.007747829E-1
3.633543233E0,4.714352489E-1,-5.690973401E-1,2.848922908E-1
3.643542399E0,4.751004577E-1,-5.929210782E-1,2.574033439E-1
3.653541699E0,4.720461071E-1,-5.886450410E-1,2.323578745E-1
3.663541732E0,4.598288238E-1,-5.813146234E-1,2.152536362E-1
3.673540898E0,4.463897645E-1,-5.898667574E-1,2.042580694E-1
3.683540764E0,4.439463317E-1,-5.965862870E-1,1.590540409E-1
3.693540730E0,4.347833395E-1,-5.953645110E-1,1.162934676E-1
3.703540696E0,4.060726762E-1,-5.800929070E-1,8.391761035E-2
3.713540362E0,3.627012372E-1,-5.483279228E-1,6.070473418E-2
3.723539662E0,3.083342314E-1,-4.945717752E-1,4.848742858E-2
3.733539628E0,2.551889420E-1,-4.218788147E-1,5.215261877E-2
3.743539661E0,2.142609805E-1,-3.516293168E-1,6.803511828E-2
3.753539727E0,1.806633919E-1,-2.771037519E-1,8.941540122E-2
3.763539727E0,1.696678251E-1,-1.995238662E-1,1.083522215E-1
3.773539660E0,1.721112877E-1,-1.225548387E-1,1.162934676E-1
3.783539626E0,1.696678251E-1,-5.780312419E-2,1.144608781E-1
3.793539659E0,1.446223408E-1,3.199406713E-2,1.169043332E-1
3.803539659E0,1.104138941E-1,1.205695271E-1,1.333976984E-1
3.813539625E0,8.536841720E-2,1.651626974E-1,1.584431678E-1
3.823539691E0,8.170322329E-2,1.608866304E-1,1.688278764E-1
3.833539724E0,1.018617824E-1,1.181260645E-1,1.492801905E-1
3.843539724E0,1.403462887E-1,5.337435007E-2,1.101848185E-1
3.853539690E0,1.647808999E-1,-1.015563495E-2,6.742425263E-2
3.863539723E0,1.886046380E-1,-8.529205620E-2,4.970915988E-2
3.873539756E0,1.989893466E-1,-1.140027270E-1,6.620252132E-2
3.883539689E0,1.989893466E-1,-1.329395473E-1,8.391761035E-2
3.893539655E0,1.934915632E-1,-1.476003081E-1,8.391761035E-2
3.903539688E0,1.855503172E-1,-1.439351290E-1,6.253732741E-2
3.913539654E0,1.672243625E-1,-1.323286891E-1,4.237877578E-2
3.923540320E0,1.324050426E-1,-1.048397496E-1,1.855503209E-2
3.933540953E0,7.803803682E-2,-6.452263892E-2,2.061670180E-3
3.943541819E0,-8.078692853E-2,-5.963572115E-2,1.183551457E-2
3.953542519E0,-1.980730593E-1,1.327868253E-1,1.183551457E-2
3.963542452E0,-2.157881409E-1,1.865429729E-1,-1.259909570E-2
3.973543318E0,-2.176207453E-1,2.048689276E-1,-1.198823005E-2
3.983543451E0,-2.145664245E-1,2.378556579E-1,4.505131394E-3
3.993543484E0,-2.011273801E-1,2.934443951E-1,-1.443169173E-2
4.003543517E0,-1.846340150E-1,3.056617081E-1,-5.352706835E-2
4.013543850E0,-1.901318133E-1,3.160464168E-1,-1.201113760E-1
4.023544550E0,-1.846340150E-1,3.759112060E-1,-1.940260679E-1
4.033544583E0,-1.540907621E-1,4.528802335E-1,-2.508365512E-1
4.043544549E0,-1.278235465E-1,4.870886803E-1,-2.520582676E-1
4.053544482E0,-1.357648075E-1,4.767039716E-1,-2.343431860E-1
4.063544482E0,-1.711949855E-1,4.632649422E-1,-2.477822155E-1
4.073544515E0,-1.962404549E-1,4.980842471E-1,-2.948188484E-1
4.083544548E0,-2.194533348E-1,5.530621409E-1,-3.589596748E-1
4.093544514E0,-2.646573782E-1,6.062073708E-1,-3.998876512E-1
4.103544547E0,-3.373503387E-1,6.648504734E-1,-3.992767930E-1
4.113544580E0,-4.277583957E-1,7.186065912E-1,-3.748421967E-1
4.123544513E0,-5.352706909E-1,7.509824634E-1,-3.546836376E-1
4.133544479E0,-6.788240075E-1,8.554404378E-1,-3.467423916E-1
4.143544479E0,-7.325801253E-1,9.189704061E-1,-3.400228620E-1
4.153544512E0,-7.600690722E-1,9.653961658E-1,-3.033709526E-1
4.163544445E0,-7.747298479E-1,9.837220907E-1,-2.318997234E-1
4.173544445E0,-7.845036983E-1,9.983828664E-1,-1.396590620E-1
4.183544511E0,-7.826710939E-1,1.028926134E0,-4.680754989E-2
4.193544511E0,-7.619016767E-1,1.058247685E0,1.244637929E-2
4.203544477E0,-7.191411257E-1,1.060080290E0,3.016147204E-2
4.213544477E0,-6.513350606E-1,1.026482701E0,1.427897532E-2
4.223544543E0,-5.181664228E-1,8.664360046E-1,-3.825543448E-2
4.233544576E0,-4.161519408E-1,7.124979496E-1,-6.391177326E-2
4.243544542E0,-3.074179292E-1,5.518403649E-1,-7.490734756E-2
4.253544508E0,-1.968513280E-1,3.850741684E-1,-6.146831438E-2
4.263544541E0,-8.994990587E-2,2.067015320E-1,-2.970332280E-2
4.273544507E0,1.679879380E-3,2.466368489E-2,-4.657847341E-3
4.283544507E0,7.131851465E-2,-1.286634952E-1,-2.825251780E-3
4.293544473E0,1.055269688E-1,-2.257910669E-1,-1.687515154E-2
4.303544473E0,1.140790880E-1,-2.722168267E-1,-4.008803144E-2
4.313544506E0,1.177442744E-1,-2.740494311E-1,-8.956811577E-2
4.323544472E0,1.214094684E-1,-2.398409694E-1,-1.109483987E-1
4.333544505E0,1.171334088E-1,-1.903608888E-1,-1.030071527E-1
4.343544538E0,9.575312585E-2,-1.653154045E-1,-7.551821321E-2
4.353544538E0,6.826419383E-2,-1.714240611E-1,-5.047274008E-2
4.363544571E0,5.421429127E-2,-1.836413592E-1,-4.069889709E-2
4.373544537E0,6.093380973E-2,-1.720349193E-1,-5.291620269E-2
4.383544537E0,8.048149943E-2,-1.292743534E-1,-6.757696718E-2
4.393544603E0,8.231408894E-2,-7.124216110E-2,-6.818783283E-2
4.403544569E0,4.505131021E-2,-1.076649968E-2,-1.626428775E-2
4.413544569E0,1.267545391E-2,-1.015563495E-2,1.611157134E-2
4.423544602E0,-6.872233935E-3,-1.443169173E-2,2.038762718E-2
4.433544602E0,-1.298088674E-2,6.948592141E-3,9.392052889E-3
4.443544602E0,-2.214386500E-2,4.543310404E-2,6.337726954E-3
4.453544568E0,-4.352414981E-2,8.391761035E-2,2.344195358E-2
4.463544601E0,-7.101308554E-2,1.083522215E-1,5.032002553E-2
4.473544601E0,-9.300423414E-2,1.224021241E-1,7.170030475E-2
4.483544534E0,-1.027780771E-1,1.297325045E-1,7.780896127E-2
4.493544567E0,-1.058324054E-1,1.199586615E-1,6.436992437E-2
4.503544600E0,-1.082758680E-1,1.004109755E-1,4.909829423E-2
4.513544600E0,-1.113301888E-1,6.925684959E-2,3.443752974E-2
4.523544533E0,-1.101084575E-1,3.565925732E-2,2.283108793E-2
4.533544499E0,-1.027780771E-1,1.244637929E-2,2.160935849E-2
4.543544532E0,-8.933904022E-2,-2.825251780E-3,3.138320148E-2
4.553544532E0,-7.467827946E-2,-1.443169173E-2,4.421137273E-2
4.563544498E0,-6.062837690E-2,-2.115120925E-2,4.115704447E-2
4.573544531E0,-4.535674304E-2,-2.298380435E-2,1.916589774E-2
4.583544564E0,-2.703078650E-2,-3.520110995E-2,-1.565342210E-2
4.593544564E0,-2.031126991E-2,-6.085744873E-2,-4.680754989E-2
4.603544530E0,-1.359175146E-2,-8.712465316E-2,-8.529205620E-2
4.613544563E0,-7.635815418E-4,-9.201157838E-2,-1.115592644E-1
4.623543929E0,9.621127509E-3,-8.834638447E-2,-1.097266674E-1
4.633543195E0,1.267545391E-2,-1.176679209E-1,-7.490734756E-2
4.643542295E0,1.450804994E-2,-1.604284793E-1,-3.031418845E-2
4.653541661E0,3.466660157E-2,-2.044107765E-1,6.948592141E-3
4.663540761E0,7.620543987E-2,-2.154063582E-1,2.527454868E-2
4.673539894E0,1.421788931E-1,-1.280526221E-1,9.392052889E-3
4.683539894E0,1.617265791E-1,-3.886630014E-2,1.305724494E-2
4.693539194E0,1.446223408E-1,3.749185428E-2,3.565925732E-2
4.703538660E0,1.024726480E-1,7.658722997E-2,5.765040591E-2
4.713538660E0,5.787948146E-2,9.185886383E-2,5.703954399E-2
4.723538260E0,2.306016348E-2,9.063713253E-2,4.298964143E-2
4.733538326E0,2.901609987E-3,7.903069258E-2,3.199406713E-2
4.743538326E0,-3.817907767E-3,5.093089119E-2,2.649627998E-2
4.753538326E0,1.069014193E-3,2.893974073E-2,1.794416644E-2
4.763538292E0,2.000583708E-2,1.305724494E-2,3.321579844E-2
4.773538292E0,3.222314268E-2,-3.817907709E-4,5.154175684E-2
4.783538325E0,4.321871698E-2,-2.298380435E-2,6.253732741E-2
4.793538291E0,6.215553731E-2,-5.169447139E-2,5.520694703E-2
4.803538324E0,8.414668590E-2,-7.918340713E-2,4.176791012E-2
4.813538357E0,1.067487001E-1,-1.152244583E-1,3.077233583E-2
4.823538357E0,1.299615800E-1,-1.616502106E-1,2.222022414E-2
4.833538390E0,1.507309973E-1,-1.995238662E-1,2.160935849E-2
4.843538356E0,1.684460938E-1,-2.166280895E-1,3.932445124E-2
4.853538389E0,1.879937798E-1,-2.575560510E-1,7.719809562E-2
4.863538422E0,1.989893466E-1,-2.917645276E-1,7.536549866E-2
4.873538388E0,2.130392492E-1,-3.119230568E-1,5.887213722E-2
4.883538354E0,2.191479057E-1,-3.100904822E-1,3.871358559E-2
4.893538354E0,2.179261744E-1,-2.868776023E-1,2.099849284E-2
4.903538387E0,2.112066597E-1,-2.459496260E-1,4.505131394E-3
4.913538320E0,1.922698319E-1,-1.921934783E-1,2.672535367E-3
4.923538986E0,1.672243625E-1,-1.530981064E-1,1.366810966E-2
4.933539686E0,1.440114826E-1,-1.219439730E-1,3.138320148E-2
4.943540552E0,1.134682223E-1,-1.048397496E-1,4.970915988E-2
4.953541185E0,1.000291854E-1,-1.170570552E-1,5.154175684E-2
4.963542051E0,9.697485715E-2,-1.170570552E-1,3.810271993E-2
4.973542984E0,9.697485715E-2,-1.017854214E-1,2.222022414E-2
4.983542984E0,9.147707373E-2,-7.185302675E-2,1.733330078E-2
4.993543617E0,8.231408894E-2,-4.069889709E-2,3.993531689E-2
5.003544150E0,6.276640296E-2,-2.298380435E-2,6.925684959E-2
5.013544150E0,4.260785133E-2,-4.046982154E-3,8.636107296E-2
5.023544550E0,2.733621933E-2,1.488984004E-2,8.147415519E-2
5.033544483E0,3.161227703E-2,4.909829423E-2,5.093089119E-2
5.043544483E0,4.749477282E-2,8.452847600E-2,4.543310404E-2
5.053544516E0,6.765332818E-2,1.004109755E-1,6.742425263E-2
5.063544549E0,7.254024595E-2,9.918924421E-2,9.430231899E-2
5.073544515E0,6.704246253E-2,5.642867833E-2,1.120174155E-1
5.083544548E0,5.971207842E-2,1.427897532E-2,1.175151989E-1
5.093544581E0,4.932736978E-2,4.505131394E-3,1.028544381E-1
5.103544514E0,4.810563847E-2,-4.657847341E-3,7.780896127E-2
5.113544514E0,4.932736978E-2,-1.565342210E-2,4.848742858E-2
5.123544514E0,4.199698567E-2,3.894265974E-3,2.290744742E-4
5.133544514E0,2.367102914E-2,1.611157134E-2,-1.504255645E-2
5.143544580E0,-1.527163113E-4,2.710714564E-2,-1.443169173E-2
5.153544546E0,-4.535674304E-2,-2.420553565E-2,8.399396902E-4
5.163544546E0,-1.119410545E-1,-9.873109311E-2,2.649627998E-2
5.173544612E0,-1.131627858E-1,-8.773551881E-2,1.855503209E-2
5.183544612E0,-7.956519723E-2,-9.628763795E-2,-1.320996135E-2
5.193544612E0,-3.008511290E-2,-8.590292186E-2,-3.397937864E-2
5.203544578E0,1.206458826E-2,-6.818783283E-2,-2.603813075E-2
5.213544611E0,6.765332818E-2,-5.268712528E-3,-1.748601720E-2
5.223544611E0,1.091921628E-1,4.360050708E-2,-5.230533704E-2
5.233544577E0,1.165225431E-1,6.375905871E-2,-8.651378751E-2
5.243544610E0,8.414668590E-2,7.108944654E-2,-8.895725012E-2
5.253544643E0,2.489275858E-2,9.430231899E-2,-7.185302675E-2
5.263544643E0,-3.802636266E-2,1.285107732E-1,-3.886630014E-2
5.273544576E0,-7.956519723E-2,1.834886521E-1,-1.198823005E-2
5.283544542E0,-8.506298810E-2,2.384665161E-1,4.505131394E-3
5.293544575E0,-6.979135424E-2,2.659554482E-1,2.955060638E-2
5.303544608E0,-3.313944116E-2,2.409099787E-1,7.292203605E-2
5.313544574E0,-1.664607786E-2,1.963168234E-1,9.002626687E-2
5.323544574E0,-9.926560335E-3,1.431715488E-1,7.597636431E-2
5.333544607E0,-1.985311974E-3,9.185886383E-2,3.993531689E-2
5.343544607E0,4.581489484E-4,6.131559983E-2,1.000291854E-2
5.353544573E0,-1.053742506E-2,4.848742858E-2,-8.933904581E-3
5.363544606E0,-3.008511290E-2,1.305724494E-2,-6.490443368E-3
5.373544639E0,-5.024366826E-2,-1.259909570E-2,3.283400787E-3
5.383544572E0,-6.673702598E-2,-2.787072770E-2,2.061670180E-3
5.393544538E0,-6.490442902E-2,-2.909245715E-2,-1.565342210E-2
5.403544571E0,-5.451972410E-2,-2.420553565E-2,-2.909245715E-2
5.413544537E0,-4.046982154E-2,-4.046982154E-3,-4.253149405E-2
5.423544537E0,-2.275473066E-2,3.565925732E-2,-5.413793400E-2
5.433544503E0,-1.542434748E-2,6.803511828E-2,-4.925100878E-2
5.443544469E0,-1.664607786E-2,6.498079002E-2,-3.397937864E-2
5.453544502E0,-1.908953860E-2,2.344195358E-2,-2.970332280E-2
5.463544468E0,-1.664607786E-2,-2.115120925E-2,-3.886630014E-2
5.473544468E0,-1.114829071E-2,-5.413793400E-2,-5.841398984E-2
5.483544501E0,-1.053742506E-2,-8.651378751E-2,-7.124216110E-2
5.493544534E0,-2.153299935E-2,-6.696610153E-2,-6.085744873E-2
5.503544534E0,-4.413501546E-2,-1.320996135E-2,-2.725986205E-2
5.513544500E0,-6.612616032E-2,3.627012298E-2,9.392052889E-3
5.523544500E0,-8.078692853E-2,6.925684959E-2,2.466368489E-2
5.533544533E0,-7.773260027E-2,9.613491595E-2,1.733330078E-2
5.543544499E0,-6.185010448E-2,1.089630872E-1,6.337726954E-3
5.553544499E0,-4.963280261E-2,1.083522215E-1,-4.046982154E-3
5.563544532E0,-4.046982154E-2,1.028544381E-1,-8.933904581E-3
5.573544532E0,-4.230241850E-2,7.353290170E-2,-1.076649968E-2
5.583544565E0,-4.963280261E-2,4.115704447E-2,-2.214386594E-3
5.593544531E0,-5.574145541E-2,-8.933904581E-3,2.672535367E-3
5.603544531E0,-5.757404864E-2,-4.680754989E-2,3.283400787E-3
5.613544564E0,-6.612616032E-2,-5.597052723E-2,-1.870774850E-2
5.623543864E0,-6.856962293E-2,-4.069889709E-2,-3.275764734E-2
5.633543197E0,-7.101308554E-2,-4.046982154E-3,-4.008803144E-2
5.643542430E0,-6.918048859E-2,3.688098863E-2,-3.886630014E-2
5.653541763E0,-5.757404864E-2,8.086328954E-2,-2.115120925E-2
5.663541696E0,-2.886338346E-2,1.132391468E-1,2.649627998E-2
5.673540796E0,-6.261368748E-3,9.124799818E-2,4.726569727E-2
5.683540862E0,1.267545391E-2,5.520694703E-2,4.543310404E-2
5.693540195E0,3.100141138E-2,2.771801129E-2,3.504839167E-2
5.703540161E0,3.344487399E-2,6.337726954E-3,2.771801129E-2
5.713540194E0,2.183843218E-2,-2.214386594E-3,2.893974073E-2
5.723540227E0,1.679879380E-3,1.305724494E-2,3.260493279E-2
5.733540760E0,-1.359175146E-2,4.176791012E-2,3.688098863E-2
5.743540726E0,-2.641992271E-2,6.742425263E-2,4.543310404E-2
5.753540692E0,-3.619376570E-2,9.063713253E-2,5.581781268E-2
5.763540725E0,-3.375030309E-2,8.758280426E-2,5.887213722E-2
5.773540658E0,-1.725694351E-2,7.841982692E-2,4.482223839E-2
5.783540624E0,5.955935922E-3,7.353290170E-2,1.488984004E-2
5.793540590E0,2.244929783E-2,6.925684959E-2,-5.268712528E-3
5.803540656E0,2.733621933E-2,5.276348442E-2,1.450804994E-3
5.813540689E0,2.367102914E-2,-1.443169173E-2,1.672243699E-2
5.823540655E0,1.878410578E-2,-6.391177326E-2,1.855503209E-2
5.833540688E0,1.511891466E-2,-8.651378751E-2,3.894265974E-3
5.843540721E0,1.023199316E-2,-6.574437022E-2,-2.359467000E-2
5.853540687E0,4.581489484E-4,-3.581197560E-2,-4.436408728E-2
5.863540720E0,-6.261368748E-3,6.948592141E-3,-5.841398984E-2
5.873540753E0,-7.483099122E-3,6.864598393E-2,-5.474879593E-2
5.883540719E0,-1.420261711E-2,1.028544381E-1,-3.336851299E-2
5.893540719E0,-2.519819140E-2,8.330674469E-2,-9.544769302E-3
5.903540685E0,-3.313944116E-2,4.604396969E-2,5.726861767E-3
5.913540685E0,-3.497203439E-2,1.550070569E-2,5.726861767E-3
5.923541418E0,-3.313944116E-2,-1.603521290E-3,-4.657847341E-3
5.933542051E0,-3.436116874E-2,-7.712173741E-3,-1.870774850E-2
5.943542817E0,-3.802636266E-2,3.283400787E-3,-2.359467000E-2
5.953543483E0,-4.108068720E-2,1.061378326E-2,-1.748601720E-2
5.963543516E0,-4.230241850E-2,2.290744742E-4,-9.544769302E-3
5.973544416E0,-4.169155285E-2,-8.323038928E-3,-1.603521290E-3
5.983544349E0,-3.375030309E-2,-5.879578181E-3,-9.926559869E-4
5.993545049E0,-2.092213556E-2,6.948592141E-3,-7.101308554E-3
6.003545082E0,-9.315694682E-3,3.504839167E-2,-1.259909570E-2
6.013545048E0,-3.817907767E-3,6.436992437E-2,-1.137736533E-2
6.023545048E0,-2.153299935E-2,6.253732741E-2,1.427897532E-2
6.033544548E0,-3.924809024E-2,2.283108793E-2,2.466368489E-2
6.043544548E0,-5.085453019E-2,-2.054034360E-2,8.781188168E-3
6.053544548E0,-5.329799280E-2,-4.986187443E-2,-2.787072770E-2
6.063544514E0,-4.596760869E-2,-5.719225854E-2,-4.436408728E-2
6.073544547E0,-3.619376570E-2,-4.497495294E-2,-3.947716579E-2
6.083544580E0,-2.764165215E-2,-8.933904581E-3,-1.992947794E-2
6.093544580E0,-1.603521220E-2,3.688098863E-2,5.726861767E-3
6.103544513E0,-1.053742506E-2,6.681338698E-2,2.710714564E-2
6.113544546E0,-3.207042580E-3,6.009386852E-2,2.222022414E-2
6.123544579E0,-7.635815418E-4,2.893974073E-2,2.061670180E-3
6.133544512E0,1.679879380E-3,-2.420553565E-2,-1.382082608E-2
6.143544478E0,-7.635815418E-4,-7.368562371E-2,-2.725986205E-2
6.153544511E0,-9.315694682E-3,-9.506590664E-2,-2.909245715E-2
6.163544444E0,-2.153299935E-2,-8.223773539E-2,-1.870774850E-2
6.173544444E0,-3.558290005E-2,-4.558581859E-2,6.948592141E-3
6.183544444E0,-5.207626149E-2,-1.809688285E-2,2.893974073E-2
6.193544477E0,-6.368270516E-2,3.894265974E-3,1.916589774E-2
6.203544543E0,-5.451972410E-2,4.115704447E-2,-2.481640130E-2
6.213544543E0,-4.413501546E-2,6.681338698E-2,-3.764457256E-2
6.223544543E0,-3.680463135E-2,5.887213722E-2,-2.420553565E-2
6.233544576E0,-3.069597855E-2,1.305724494E-2,3.283400787E-3
6.243544576E0,-1.542434748E-2,-3.214678168E-2,2.710714564E-2
6.253544576E0,6.566801574E-3,-4.864014685E-2,4.115704447E-2
6.263544542E0,2.367102914E-2,-3.092505224E-2,4.848742858E-2
6.273544542E0,2.550362423E-2,-1.015563495E-2,5.642867833E-2
6.283544575E0,1.511891466E-2,-3.436116967E-3,4.909829423E-2
6.293544541E0,-1.527163113E-4,4.505131394E-3,3.283400787E-3
6.303544541E0,-9.315694682E-3,4.505131394E-3,-2.848159149E-2
6.313544574E0,-1.114829071E-2,5.115996581E-3,-4.192062840E-2
6.323544540E0,-9.926560335E-3,8.399396902E-4,-3.520110995E-2
6.333544540E0,-1.985311974E-3,-3.703370690E-2,-1.626428775E-2
6.343544540E0,1.267545391E-2,-9.078984708E-2,-1.320996135E-2
6.353544573E0,4.321871698E-2,-1.201113760E-1,-1.687515154E-2
6.363544606E0,6.643159688E-2,-1.115592644E-1,-2.054034360E-2
6.373544572E0,7.315111160E-2,-7.490734756E-2,-3.817907709E-4
6.383544572E0,5.054909736E-2,6.337726954E-3,4.237877578E-2
6.393544605E0,2.977968007E-2,6.742425263E-2,5.154175684E-2
6.403544605E0,1.145372353E-2,9.552405030E-2,4.237877578E-2
6.413544538E0,-1.374446787E-3,1.010218412E-1,3.749185428E-2
6.423544504E0,-1.175915636E-2,6.070473418E-2,3.810271993E-2
6.433544537E0,-1.542434748E-2,-1.137736533E-2,2.466368489E-2
6.443544537E0,-5.650503561E-3,-6.696610153E-2,8.399396902E-4
6.453544503E0,1.450804994E-2,-8.529205620E-2,-1.748601720E-2
6.463544536E0,2.306016348E-2,-7.735081017E-2,-1.076649968E-2
6.473544536E0,7.177666761E-3,-4.253149405E-2,3.993531689E-2
6.483544536E0,-5.650503561E-3,-8.933904581E-3,5.581781268E-2
6.493544502E0,-8.093964309E-3,3.565925732E-2,3.871358559E-2
6.503544435E0,3.512475174E-3,6.864598393E-2,5.115996581E-3
6.513544435E0,2.000583708E-2,8.025242388E-2,-1.076649968E-2
6.523544368E0,3.405573592E-2,5.520694703E-2,-8.323038928E-3
6.533544334E0,4.077525437E-2,3.894265974E-3,-7.101308554E-3
6.543544367E0,5.543602258E-2,-5.169447139E-2,-2.359467000E-2
6.553544367E0,7.192938030E-2,-9.812022746E-2,-4.802928120E-2
6.563544367E0,8.048149943E-2,-1.286634952E-1,-6.085744873E-2
6.573544333E0,6.643159688E-2,-1.195005104E-1,-4.375322163E-2
6.583544366E0,4.016438872E-2,-8.223773539E-2,-2.237293869E-2
6.593544399E0,1.817324013E-2,-1.931861416E-2,-1.015563495E-2
6.603544365E0,5.345070735E-3,5.520694703E-2,-4.657847341E-3
6.613544398E0,1.069014193E-3,1.181260645E-1,7.559457328E-3
6.623543764E0,-1.527163113E-4,1.480584592E-1,3.016147204E-2
6.633543064E0,-1.374446787E-3,1.333976984E-1,5.703954399E-2
6.643542397E0,4.123340361E-3,9.674578160E-2,6.192646548E-2
6.653541997E0,2.244929783E-2,5.581781268E-2,4.176791012E-2
6.663541130E0,4.321871698E-2,2.061670180E-3,1.244637929E-2
6.673541196E0,2.855795063E-2,-3.397937864E-2,1.427897532E-2
6.683540796E0,-3.817907767E-3,-6.513350457E-2,1.366810966E-2
6.693540796E0,-4.230241850E-2,-8.101600409E-2,-2.214386594E-3
6.703540162E0,-6.490442902E-2,-7.063129544E-2,-3.092505224E-2
6.713540162E0,-7.040221989E-2,-4.558581859E-2,-4.986187443E-2
6.723539995E0,-6.551529467E-2,-4.130976275E-2,-5.474879593E-2
6.733539961E0,-5.451972410E-2,-5.597052723E-2,-4.986187443E-2
6.743540027E0,-2.275473066E-2,-4.192062840E-2,-4.130976275E-2
6.753540060E0,-9.315694682E-3,-2.054034360E-2,-3.214678168E-2
6.763540026E0,-1.053742506E-2,-4.657847341E-3,-7.712173741E-3
6.773540059E0,-1.970040426E-2,2.672535367E-3,2.038762718E-2
6.783540092E0,-2.825251780E-2,5.726861767E-3,3.077233583E-2
6.793540092E0,-2.641992271E-2,8.781188168E-3,1.855503209E-2
6.803540125E0,-2.031126991E-2,1.244637929E-2,-3.436116967E-3
6.813540091E0,-1.420261711E-2,2.099849284E-2,-1.015563495E-2
6.823539457E0,-1.420261711E-2,4.298964143E-2,-3.817907709E-4
6.833539490E0,-1.359175146E-2,9.857837856E-2,3.077233583E-2
6.843539456E0,-9.315694682E-3,1.205695271E-1,5.215261877E-2
6.853539489E0,-1.985311974E-3,1.272890419E-1,6.131559983E-2
6.863539522E0,1.206458826E-2,1.199586615E-1,6.131559983E-2
6.873539522E0,2.489275858E-2,1.010218412E-1,5.154175684E-2
6.883539455E0,2.916881628E-2,7.231117040E-2,3.504839167E-2
6.893539421E0,1.878410578E-2,4.115704447E-2,1.733330078E-2
6.903539454E0,1.069014193E-3,2.672535367E-3,6.948592141E-3
6.913539387E0,-2.214386500E-2,-5.291620269E-2,-1.382082608E-2
6.923540020E0,-4.291328415E-2,-1.127809957E-1,-5.108360574E-2
6.933540686E0,-4.780020565E-2,-1.176679209E-1,-5.902485549E-2
6.943541386E0,-4.841107130E-2,-1.017854214E-1,-5.047274008E-2
6.953541786E0,-4.657847434E-2,-7.796167582E-2,-3.397937864E-2
6.963542619E0,-3.558290005E-2,-5.169447139E-2,-2.054034360E-2
6.973542619E0,-1.175915636E-2,-1.015563495E-2,-1.626428775E-2
6.983543019E0,2.061670274E-2,4.787656292E-2,-1.198823005E-2
6.993542985E0,4.321871698E-2,9.246972948E-2,5.115996581E-3
7.003543618E0,4.810563847E-2,8.636107296E-2,2.771801129E-2
7.013543618E0,2.367102914E-2,6.337726954E-3,3.504839167E-2
7.023543851E0,-2.596177394E-3,-3.520110995E-2,-1.076649968E-2
7.033543884E0,-2.886338346E-2,-4.619668424E-2,-5.047274008E-2
7.043543817E0,-6.307183951E-2,-5.108360574E-2,-6.696610153E-2
7.053543817E0,-1.052215397E-1,-1.017854214E-1,-5.352706835E-2
7.063543850E0,-1.803579628E-1,-2.221258730E-1,-3.436116967E-3
7.073543783E0,-1.357648075E-1,-1.182787865E-1,-9.926559869E-4
7.083543783E0,-7.712173462E-2,-8.529205620E-2,-3.092505224E-2
7.093543783E0,5.345070735E-3,-2.214386594E-3,-4.497495294E-2
7.103543783E0,8.292495459E-2,7.536549866E-2,-3.459024429E-2
7.113543816E0,1.330159009E-1,1.462258697E-1,-3.764457256E-2
7.123544449E0,1.207986027E-1,1.779908538E-1,-7.735081017E-2
7.133544449E0,8.048149943E-2,1.889864355E-1,-1.219439730E-1
7.143544515E0,3.222314268E-2,1.779908538E-1,-1.372155994E-1
7.153544481E0,-5.039638374E-3,1.517236531E-1,-1.256091595E-1
7.163544447E0,-3.130684420E-2,9.735664725E-2,-8.834638447E-2
7.173544447E0,-5.085453019E-2,2.099849284E-2,-4.314235970E-2
7.183544480E0,-5.085453019E-2,-3.397937864E-2,-1.809688285E-2
7.193544480E0,-4.291328415E-2,-8.933904581E-3,-8.933904581E-3
7.203544446E0,-2.947424725E-2,5.765040591E-2,-7.101308554E-3
7.213544479E0,-1.970040426E-2,1.095739529E-1,5.115996581E-3
7.223544512E0,-1.542434748E-2,1.419498175E-1,2.893974073E-2
7.233544512E0,-1.664607786E-2,1.498910636E-1,5.337435007E-2
7.243544478E0,-1.847867295E-2,1.205695271E-1,5.887213722E-2
7.253544444E0,-1.420261711E-2,7.047858089E-2,4.237877578E-2
7.263544477E0,-8.093964309E-3,1.305724494E-2,1.305724494E-2
7.273544410E0,-1.053742506E-2,-2.970332280E-2,-1.015563495E-2
7.283544376E0,-2.153299935E-2,-4.986187443E-2,-2.115120925E-2
7.293544409E0,-5.574145541E-2,-7.612907887E-2,-2.176207490E-2
7.303544442E0,-6.979135424E-2,-9.445504099E-2,-3.764457256E-2
7.313544442E0,-7.101308554E-2,-9.384417534E-2,-5.841398984E-2
7.323544375E0,-6.551529467E-2,-8.407033235E-2,-6.818783283E-2
7.333544408E0,-5.574145541E-2,-6.574437022E-2,-6.207918003E-2
7.343544441E0,-4.108068720E-2,-4.680754989E-2,-4.680754989E-2
7.353544407E0,-1.908953860E-2,-2.237293869E-2,-2.664899640E-2
7.363544440E0,2.290744567E-3,2.672535367E-3,-6.490443368E-3
7.373544473E0,1.450804994E-2,6.337726954E-3,2.038762718E-2
7.383544439E0,1.817324013E-2,-2.054034360E-2,3.749185428E-2
7.393544439E0,2.183843218E-2,-2.909245715E-2,1.794416644E-2
7.403544405E0,2.244929783E-2,-9.544769302E-3,-3.436116967E-3
7.413544405E0,1.511891466E-2,3.077233583E-2,-7.101308554E-3
7.423544438E0,-4.428773187E-3,5.520694703E-2,1.183551457E-2
7.433544404E0,-3.313944116E-2,4.482223839E-2,3.260493279E-2
7.443544370E0,-5.329799280E-2,3.016147204E-2,3.627012298E-2
7.453544403E0,-5.696318299E-2,4.237877578E-2,2.955060638E-2
7.463544403E0,-4.657847434E-2,4.909829423E-2,3.199406713E-2
7.473544436E0,-1.786780916E-2,6.131559983E-2,4.909829423E-2
7.483544402E0,4.734205548E-3,6.681338698E-2,5.520694703E-2
7.493544435E0,2.855795063E-2,6.681338698E-2,4.909829423E-2
7.503544468E0,5.299255997E-2,6.803511828E-2,2.771801129E-2
7.513544434E0,7.192938030E-2,7.231117040E-2,2.061670180E-3
7.523544434E0,7.742717117E-2,6.009386852E-2,-1.626428775E-2
7.533544467E0,7.437284291E-2,1.122464892E-2,-2.725986205E-2
7.543544467E0,6.704246253E-2,-4.925100878E-2,-3.947716579E-2
7.553544467E0,5.849034712E-2,-9.812022746E-2,-5.047274008E-2
7.563544433E0,3.711006418E-2,-1.335504204E-1,-4.436408728E-2
7.573544466E0,1.328631863E-2,-1.170570552E-1,-2.359467000E-2
7.583544499E0,-1.298088674E-2,-6.696610153E-2,8.399396902E-4
7.593544465E0,-3.497203439E-2,8.399396902E-4,2.222022414E-2
7.603544465E0,-4.046982154E-2,6.070473418E-2,3.199406713E-2
7.613544498E0,-3.252857551E-2,9.857837856E-2,2.038762718E-2
7.623543831E0,-4.428773187E-3,1.205695271E-1,-7.712173741E-3
7.633543097E0,2.733621933E-2,1.321759671E-1,-2.848159149E-2
7.643543097E0,4.993823543E-2,1.107956842E-1,-2.542726509E-2
7.653542463E0,5.360342562E-2,-3.436116967E-3,8.170322515E-3
7.663541529E0,5.360342562E-2,-8.712465316E-2,1.183551457E-2
7.673541529E0,5.177082866E-2,-1.518763751E-1,-1.687515154E-2
7.683541562E0,4.138612002E-2,-1.769218445E-1,-4.497495294E-2
7.693541195E0,2.183843218E-2,-1.280526221E-1,-4.253149405E-2
7.703540528E0,-1.603521220E-2,-4.130976275E-2,-7.101308554E-3
7.713540528E0,-5.635231733E-2,4.115704447E-2,3.138320148E-2
7.723540394E0,-7.712173462E-2,1.144608781E-1,4.543310404E-2
7.733540427E0,-7.162395120E-2,1.712713391E-1,3.688098863E-2
7.743541027E0,-3.375030309E-2,1.798234582E-1,1.061378326E-2
7.753541027E0,-3.817907767E-3,1.278999150E-1,1.244637929E-2
7.763541060E0,2.122756653E-2,4.176791012E-2,1.977676153E-2
7.773541026E0,4.138612002E-2,-5.474879593E-2,1.488984004E-2
7.783541026E0,5.482515693E-2,-1.146135926E-1,-7.101308554E-3
7.793540992E0,5.910121277E-2,-1.195005104E-1,-2.359467000E-2
7.803540992E0,4.016438872E-2,-9.140071273E-2,-1.870774850E-2
7.813541025E0,1.069014193E-3,-5.902485549E-2,-7.101308554E-3
7.823540991E0,-3.558290005E-2,-3.459024429E-2,-7.712173741E-3
7.833541024E0,-5.757404864E-2,-1.198823005E-2,-4.436408728E-2
7.843541057E0,-5.329799280E-2,-1.076649968E-2,-6.452263892E-2
7.853541057E0,-3.924809024E-2,-1.748601720E-2,-5.291620269E-2
7.863541090E0,-1.237002108E-2,-8.933904581E-3,-1.870774850E-2
7.873541056E0,2.061670274E-2,8.399396902E-4,2.099849284E-2
7.883541056E0,4.627304152E-2,8.170322515E-3,4.115704447E-2
7.893541089E0,5.910121277E-2,1.122464892E-2,4.176791012E-2
7.903541055E0,5.482515693E-2,5.115996581E-3,2.955060638E-2
7.913541055E0,3.833179548E-2,-7.101308554E-3,2.672535367E-3
7.923541755E0,8.399397135E-3,-1.870774850E-2,-4.130976275E-2
7.933542421E0,-1.527163113E-4,-1.259909570E-2,-5.169447139E-2
7.943542387E0,-1.985311974E-3,-8.933904581E-3,-3.886630014E-2
7.953543020E0,-1.374446787E-3,-1.809688285E-2,-1.137736533E-2
7.963543920E0,5.955935922E-3,-3.459024429E-2,1.000291854E-2
7.973543920E0,2.000583708E-2,-3.825543448E-2,1.672243699E-2
7.983543886E0,3.833179548E-2,-1.931861416E-2,8.170322515E-3
7.993544286E0,4.993823543E-2,1.855503209E-2,2.290744742E-4
8.003544986E0,4.749477282E-2,4.787656292E-2,2.672535367E-3
8.013544952E0,2.977968007E-2,3.382666409E-2,1.000291854E-2
8.023545052E0,2.367102914E-2,1.488984004E-2,-5.879578181E-3
8.033545018E0,2.183843218E-2,1.122464892E-2,-2.298380435E-2
8.043544418E0,1.756237634E-2,1.450804994E-3,-2.420553565E-2
8.053544384E0,4.734205548E-3,-2.481640130E-2,-5.268712528E-3
8.063544350E0,-1.053742506E-2,-4.069889709E-2,1.488984004E-2
8.073544383E0,-9.315694682E-3,-2.664899640E-2,2.405281924E-2
8.083544416E0,5.345070735E-3,2.588541433E-2,2.038762718E-2
8.093544416E0,2.000583708E-2,9.613491595E-2,2.405281924E-2
8.103544382E0,2.061670274E-2,1.321759671E-1,5.581781268E-2
8.113544415E0,1.511891466E-2,7.047858089E-2,7.658722997E-2
8.123544448E0,2.000583708E-2,-1.603521290E-3,6.864598393E-2
8.133544381E0,3.222314268E-2,-6.085744873E-2,2.099849284E-2
8.143544347E0,4.016438872E-2,-1.329395473E-1,-1.870774850E-2
8.153544380E0,3.649919853E-2,-1.793653071E-1,-4.925100878E-2
8.163544346E0,2.855795063E-2,-1.781435758E-1,-4.375322163E-2
8.173544346E0,1.572977938E-2,-1.555415690E-1,-1.259909570E-2
8.183544312E0,1.069014193E-3,-1.408807933E-1,2.160935849E-2
8.193544312E0,-5.039638374E-3,-9.445504099E-2,3.077233583E-2
8.203544345E0,2.290744567E-3,-3.397937864E-2,1.672243699E-2
8.213544311E0,1.023199316E-2,2.222022414E-2,1.305724494E-2
8.223544344E0,1.389718428E-2,4.482223839E-2,1.977676153E-2
8.233544377E0,1.817324013E-2,2.588541433E-2,2.955060638E-2
8.243544377E0,2.672535367E-2,-3.153591976E-2,2.405281924E-2
8.253544377E0,4.566217586E-2,-9.140071273E-2,2.290744742E-4
8.263544343E0,6.093380973E-2,-1.176679209E-1,-1.931861416E-2
8.273544343E0,5.971207842E-2,-1.414916664E-1,-2.664899640E-2
8.283544376E0,3.649919853E-2,-1.530981064E-1,-2.420553565E-2
8.293544342E0,1.939497143E-2,-1.390482038E-1,-1.015563495E-2
8.303544342E0,5.955935922E-3,-1.140027270E-1,1.427897532E-2
8.313544375E0,2.290744567E-3,-8.040513843E-2,2.099849284E-2
8.323544375E0,4.734205548E-3,-1.809688285E-2,2.527454868E-2
8.333544408E0,6.566801574E-3,4.848742858E-2,3.443752974E-2
8.343544374E0,9.010262787E-3,9.246972948E-2,5.093089119E-2
8.353544407E0,1.206458826E-2,7.964155823E-2,6.253732741E-2
8.363544440E0,2.611448988E-2,2.038762718E-2,4.543310404E-2
8.373544406E0,7.009678334E-2,-4.741841555E-2,-1.198823005E-2
8.383544406E0,8.414668590E-2,-3.459024429E-2,-2.420553565E-2
8.393544439E0,6.826419383E-2,-1.748601720E-2,4.505131394E-3
8.403544439E0,4.199698567E-2,-1.443169173E-2,3.871358559E-2
8.413544372E0,2.183843218E-2,-5.879578181E-3,4.726569727E-2
8.423544338E0,2.000583708E-2,1.977676153E-2,3.077233583E-2
8.433544371E0,2.000583708E-2,6.070473418E-2,1.183551457E-2
8.443544371E0,7.788531948E-3,8.391761035E-2,2.290744742E-4
8.453544337E0,-1.603521220E-2,8.330674469E-2,-3.817907709E-4
8.463544337E0,-4.230241850E-2,2.527454868E-2,2.672535367E-3
8.473544403E0,-4.780020565E-2,-2.725986205E-2,-3.436116967E-3
8.483544436E0,-4.535674304E-2,-5.963572115E-2,-1.076649968E-2
8.493544402E0,-4.474587739E-2,-7.429648191E-2,-1.626428775E-2
8.503544368E0,-4.413501546E-2,-6.269004941E-2,-1.809688285E-2
8.513544401E0,-4.230241850E-2,-4.008803144E-2,-1.259909570E-2
8.523544367E0,-4.230241850E-2,-2.214386594E-3,-2.825251780E-3
8.533544333E0,-3.863722831E-2,3.443752974E-2,7.559457328E-3
8.543544333E0,-3.497203439E-2,5.398521572E-2,1.672243699E-2
8.553544399E0,-1.970040426E-2,3.260493279E-2,-1.137736533E-2
8.563544432E0,-3.207042580E-3,-1.931861416E-2,-4.558581859E-2
8.573544398E0,1.634064503E-2,-8.956811577E-2,-7.307475805E-2
8.583544431E0,2.550362423E-2,-1.543198377E-1,-8.345946670E-2
8.593544464E0,1.572977938E-2,-2.001347244E-1,-6.391177326E-2
8.603544430E0,-1.053742506E-2,-2.416735590E-1,-4.314235970E-2
8.613544430E0,-3.802636266E-2,-2.288453877E-1,-4.069889709E-2
8.623543763E0,-5.574145541E-2,-1.341612786E-1,-3.764457256E-2
8.633543096E0,-6.918048859E-2,-2.664899640E-2,-1.870774850E-2
8.643542529E0,-7.345654815E-2,1.028544381E-1,2.283108793E-2
8.653541629E0,-4.596760869E-2,1.511127949E-1,2.832887508E-2
8.663540762E0,5.955935922E-3,1.645518243E-1,5.115996581E-3
8.673540128E0,5.971207842E-2,1.468367279E-1,-1.504255645E-2
8.683540094E0,9.025534242E-2,9.674578160E-2,-9.544769302E-3
8.693540060E0,9.330966324E-2,1.305724494E-2,1.977676153E-2
8.703540060E0,7.864890248E-2,-7.368562371E-2,4.421137273E-2
8.713540093E0,6.337726861E-2,-1.231657043E-1,3.871358559E-2
8.723539726E0,5.360342562E-2,-1.078940704E-1,1.305724494E-2
8.733539692E0,2.794708498E-2,8.399396902E-4,-1.137736533E-2
8.743539725E0,3.512475174E-3,7.108944654E-2,-8.933904581E-3
8.753539791E0,-1.664607786E-2,1.181260645E-1,-2.214386594E-3
8.763539791E0,-1.786780916E-2,1.364520192E-1,2.061670180E-3
8.773539724E0,-1.985311974E-3,1.297325045E-1,5.726861767E-3
8.783539690E0,2.367102914E-2,8.697193861E-2,1.427897532E-2
8.793539723E0,4.993823543E-2,2.099849284E-2,2.283108793E-2
8.803539723E0,7.070764899E-2,-2.787072770E-2,2.893974073E-2
8.813539689E0,7.681630552E-2,-5.902485549E-2,3.260493279E-2
8.823539689E0,5.543602258E-2,-7.063129544E-2,3.077233583E-2
8.833539722E0,2.794708498E-2,-6.146831438E-2,2.466368489E-2
8.843539722E0,-3.817907767E-3,-3.642284125E-2,1.366810966E-2
8.853539655E0,-3.802636266E-2,-1.015563495E-2,3.283400787E-3
8.863539688E0,-6.062837690E-2,-9.544769302E-3,-1.015563495E-2
8.873539721E0,-6.001751125E-2,-1.931861416E-2,-3.214678168E-2
8.883539654E0,-4.413501546E-2,-2.420553565E-2,-4.497495294E-2
8.893539654E0,-3.313944116E-2,-3.581197560E-2,-3.886630014E-2
8.903539687E0,-2.764165215E-2,-6.269004941E-2,-2.420553565E-2
8.913539653E0,-5.039638374E-3,-1.072832122E-1,-3.886630014E-2
8.923540353E0,2.428189293E-2,-1.042288840E-1,-6.269004941E-2
8.933540986E0,4.566217586E-2,-8.956811577E-2,-6.452263892E-2
8.943541586E0,4.993823543E-2,-8.712465316E-2,-3.703370690E-2
8.953542486E0,4.688390717E-2,-9.140071273E-2,-4.657847341E-3
8.963543319E0,4.260785133E-2,-7.490734756E-2,1.611157134E-2
8.973544019E0,3.894266114E-2,-2.359467000E-2,2.771801129E-2
8.983544052E0,2.916881628E-2,5.948300287E-2,3.932445124E-2
8.993544052E0,1.389718428E-2,1.425606757E-1,6.253732741E-2
9.003544052E0,-2.596177394E-3,2.036471963E-1,9.185886383E-2
9.013544018E0,4.123340361E-3,1.902081668E-1,8.330674469E-2
9.023544418E0,2.306016348E-2,1.535562575E-1,5.337435007E-2
9.033544451E0,4.199698567E-2,1.052978933E-1,2.405281924E-2
9.043544417E0,4.688390717E-2,4.421137273E-2,1.122464892E-2
9.053544383E0,3.711006418E-2,-3.214678168E-2,8.170322515E-3
9.063544416E0,2.306016348E-2,-1.066723466E-1,-1.603521290E-3
9.073544416E0,1.206458826E-2,-1.323286891E-1,-2.359467000E-2
9.083544449E0,-4.428773187E-3,-1.158353239E-1,-3.397937864E-2
9.093544415E0,-4.230241850E-2,-4.802928120E-2,-7.101308554E-3
9.103544448E0,-6.368270516E-2,-3.817907709E-4,2.344195358E-2
9.113544481E0,-7.651086897E-2,2.649627998E-2,4.543310404E-2
9.123544447E0,-7.223481685E-2,3.138320148E-2,4.787656292E-2
9.133544447E0,-5.268712714E-2,2.283108793E-2,1.977676153E-2
9.143544480E0,-2.886338346E-2,2.283108793E-2,-1.198823005E-2
9.153544480E0,-5.650503561E-3,9.392052889E-3,-1.992947794E-2
9.163544413E0,1.145372353E-2,-3.153591976E-2,-1.198823005E-2
9.173544379E0,2.611448988E-2,-7.307475805E-2,-1.603521290E-3
9.183544412E0,3.527746722E-2,-9.934195876E-2,7.559457328E-3
9.193544378E0,2.244929783E-2,-8.895725012E-2,8.170322515E-3
9.203544344E0,-1.527163113E-4,-6.818783283E-2,-3.817907709E-4
9.213544410E0,-2.214386500E-2,-4.314235970E-2,-1.015563495E-2
9.223544410E0,-3.802636266E-2,-1.320996135E-2,-1.015563495E-2
9.233544410E0,-4.169155285E-2,1.000291854E-2,6.337726954E-3
9.243544376E0,-3.313944116E-2,1.977676153E-2,3.443752974E-2
9.253544342E0,-1.664607786E-2,1.733330078E-2,5.520694703E-2
9.263544375E0,7.177666761E-3,9.392052889E-3,5.459608138E-2
9.273544308E0,3.649919853E-2,2.160935849E-2,1.733330078E-2
9.283544274E0,3.588833287E-2,5.093089119E-2,2.290744742E-4
9.293544307E0,2.000583708E-2,5.948300287E-2,-1.015563495E-2
9.303544307E0,7.788531948E-3,3.321579844E-2,-2.420553565E-2
9.313544307E0,1.328631863E-2,-1.015563495E-2,-5.535966158E-2
9.323544273E0,3.100141138E-2,-3.459024429E-2,-8.956811577E-2
9.333544306E0,3.955352306E-2,-3.703370690E-2,-8.162686974E-2
9.343544339E0,2.306016348E-2,-3.703370690E-2,-4.130976275E-2
9.353544305E0,-1.527163113E-4,-4.192062840E-2,8.399396902E-4
9.363544338E0,-8.093964309E-3,-1.015563495E-2,6.337726954E-3
9.373544371E0,4.734205548E-3,4.421137273E-2,-9.926559869E-4
9.383544337E0,1.817324013E-2,9.308059514E-2,6.337726954E-3
9.393544370E0,2.367102914E-2,1.254564524E-1,2.527454868E-2
9.403544336E0,2.306016348E-2,1.382846236E-1,4.543310404E-2
9.413544336E0,2.428189293E-2,1.248455867E-1,5.276348442E-2
9.423544369E0,3.161227703E-2,9.063713253E-2,4.665483162E-2
9.433544335E0,4.260785133E-2,5.154175684E-2,2.466368489E-2
9.443544335E0,3.894266114E-2,2.649627998E-2,1.183551457E-2
9.453544368E0,-3.207042580E-3,-3.214678168E-2,2.344195358E-2
9.463544368E0,-3.680463135E-2,-6.513350457E-2,2.283108793E-2
9.473544401E0,-6.368270516E-2,-8.407033235E-2,4.505131394E-3
9.483544367E0,-8.139779419E-2,-9.201157838E-2,-1.870774850E-2
9.493544400E0,-9.178250283E-2,-7.307475805E-2,-3.703370690E-2
9.503544433E0,-9.605856240E-2,-3.886630014E-2,-5.047274008E-2
9.513544366E0,-1.015563458E-1,-6.490443368E-3,-5.535966158E-2
9.523544366E0,-9.361509979E-2,1.000291854E-2,-5.230533704E-2
9.533544399E0,-7.406741381E-2,-1.603521290E-3,-3.764457256E-2
9.543544399E0,-3.436116874E-2,-5.230533704E-2,5.115996581E-3
9.553544399E0,-1.298088674E-2,-8.040513843E-2,1.550070569E-2
9.563544365E0,-1.985311974E-3,-7.429648191E-2,1.122464892E-2
9.573544398E0,-1.985311974E-3,-3.336851299E-2,1.000291854E-2
9.583544431E0,-1.175915636E-2,2.061670180E-3,4.505131394E-3
9.593544397E0,-2.153299935E-2,2.099849284E-2,-2.214386594E-3
9.603544430E0,-2.031126991E-2,9.392052889E-3,-1.443169173E-2
9.613544463E0,-5.039638374E-3,-1.015563495E-2,-3.153591976E-2
9.623543796E0,2.000583708E-2,-1.809688285E-2,-3.825543448E-2
9.633543596E0,4.566217586E-2,-2.542726509E-2,-2.359467000E-2
9.643542696E0,3.894266114E-2,-1.565342210E-2,-5.879578181E-3
9.653542062E0,1.817324013E-2,-1.443169173E-2,2.344195358E-2
9.663541128E0,-5.039638374E-3,1.427897532E-2,5.154175684E-2
9.673540228E0,-2.275473066E-2,3.260493279E-2,6.436992437E-2
9.683539594E0,-2.825251780E-2,4.298964143E-2,5.459608138E-2
9.693539560E0,-2.519819140E-2,5.826127157E-2,3.016147204E-2
9.703538893E0,-1.664607786E-2,7.719809562E-2,1.183551457E-2
9.713538893E0,-1.786780916E-2,7.964155823E-2,1.916589774E-2
9.723538926E0,-2.703078650E-2,1.733330078E-2,4.360050708E-2
9.733538992E0,-2.275473066E-2,-2.237293869E-2,3.749185428E-2
9.743538958E0,-1.114829071E-2,-2.848159149E-2,2.160935849E-2
9.753538924E0,-1.527163113E-4,-3.092505224E-2,1.183551457E-2
9.763538957E0,-7.635815418E-4,-3.764457256E-2,8.781188168E-3
9.773538923E0,-7.483099122E-3,-4.130976275E-2,6.948592141E-3
9.783538923E0,-1.298088674E-2,-4.497495294E-2,2.290744742E-4
9.793538889E0,-1.420261711E-2,-4.558581859E-2,-1.748601720E-2
9.803538922E0,-1.359175146E-2,-4.008803144E-2,-4.069889709E-2
9.813538955E0,-7.483099122E-3,-3.581197560E-2,-5.535966158E-2
9.823538921E0,2.290744567E-3,-4.680754989E-2,-4.192062840E-2
9.833538921E0,1.634064503E-2,-6.024658307E-2,-2.237293869E-2
9.843538921E0,2.977968007E-2,-5.780312419E-2,-5.879578181E-3
9.853538954E0,3.283400834E-2,-3.703370690E-2,8.781188168E-3
9.863538987E0,2.794708498E-2,-1.870774850E-2,6.948592141E-3
9.873538953E0,1.695151068E-2,1.550070569E-2,2.290744742E-4
9.883538953E0,2.290744567E-3,5.398521572E-2,-3.436116967E-3
9.893538986E0,-1.175915636E-2,6.314819306E-2,-8.323038928E-3
9.903538952E0,1.069014193E-3,2.466368489E-2,-2.664899640E-2
9.913538918E0,2.794708498E-2,4.505131394E-3,-3.031418845E-2
9.923539584E0,4.871650413E-2,3.283400787E-3,-8.933904581E-3
9.933539750E0,5.054909736E-2,1.061378326E-2,3.260493279E-2
9.943540616E0,4.138612002E-2,1.977676153E-2,6.314819306E-2
9.953541249E0,3.405573592E-2,4.237877578E-2,6.131559983E-2
9.963542149E0,2.550362423E-2,9.491318464E-2,3.993531689E-2
9.973543049E0,1.878410578E-2,1.401172131E-1,2.527454868E-2
9.983543682E0,7.177666761E-3,1.425606757E-1,2.344195358E-2
9.993543715E0,-7.483099122E-3,7.719809562E-2,3.382666409E-2
1.000354438E1,1.069014193E-3,1.733330078E-2,2.588541433E-2
1.001354438E1,1.817324013E-2,-1.015563495E-2,8.399396902E-4
1.002354431E1,2.428189293E-2,-7.101308554E-3,-1.259909570E-2
1.003354425E1,1.023199316E-2,-6.490443368E-3,-9.544769302E-3
1.004354428E1,-1.481348183E-2,-4.008803144E-2,-8.323038928E-3
1.005354431E1,-2.458732575E-2,-8.162686974E-2,-3.092505224E-2
1.006354428E1,-1.664607786E-2,-9.078984708E-2,-6.574437022E-2
1.007354428E1,-9.315694682E-3,-7.246389240E-2,-7.735081017E-2
1.008354434E1,-2.519819140E-2,-3.153591976E-2,-3.214678168E-2
1.009354438E1,-3.680463135E-2,-4.046982154E-3,5.726861767E-3
1.010354431E1,-3.619376570E-2,3.260493279E-2,2.832887508E-2
1.011354434E1,-2.214386500E-2,5.948300287E-2,3.504839167E-2
1.012354438E1,-3.817907767E-3,6.436992437E-2,3.260493279E-2
1.013354434E1,1.572977938E-2,6.192646548E-2,3.016147204E-2
1.014354434E1,2.916881628E-2,4.848742858E-2,4.115704447E-2
1.015354431E1,2.977968007E-2,2.527454868E-2,5.703954399E-2
1.016354431E1,2.428189293E-2,-6.490443368E-3,5.215261877E-2
1.017354434E1,1.389718428E-2,2.672535367E-3,2.061670180E-3
1.018354431E1,-1.985311974E-3,4.970915988E-2,-2.359467000E-2
1.019354431E1,-3.252857551E-2,6.436992437E-2,-2.603813075E-2
1.020354434E1,-5.879577994E-2,2.283108793E-2,-1.748601720E-2
1.021354434E1,-6.185010448E-2,-3.703370690E-2,-2.054034360E-2
1.022354437E1,-4.169155285E-2,-9.017898142E-2,-2.725986205E-2
1.023354434E1,-1.664607786E-2,-1.286634952E-1,-3.031418845E-2
1.024354437E1,1.069014193E-3,-1.341612786E-1,-1.870774850E-2
1.025354441E1,-5.650503561E-3,-1.262200326E-1,-3.436116967E-3
1.026354437E1,-3.130684420E-2,-7.063129544E-2,6.948592141E-3
1.027354437E1,-4.780020565E-2,-3.436116967E-3,2.160935849E-2
1.028354440E1,-5.635231733E-2,6.009386852E-2,4.054617882E-2
1.029354437E1,-5.146539584E-2,9.124799818E-2,5.032002553E-2
1.030354437E1,-2.397646010E-2,9.674578160E-2,3.749185428E-2
1.031354434E1,1.817324013E-2,1.010218412E-1,1.305724494E-2
1.032354437E1,4.566217586E-2,9.185886383E-2,-9.926559869E-4
1.033354440E1,4.138612002E-2,4.604396969E-2,1.000291854E-2
1.034354437E1,2.611448988E-2,-4.436408728E-2,2.405281924E-2
1.035354437E1,1.389718428E-2,-1.604284793E-1,1.977676153E-2
1.036354440E1,1.756237634E-2,-1.928043365E-1,-8.933904581E-3
1.037354440E1,1.206458826E-2,-1.689805984E-1,-2.420553565E-2
1.038354434E1,-1.786780916E-2,-1.176679209E-1,-5.879578181E-3
1.039354430E1,-5.513058975E-2,-7.124216110E-2,2.038762718E-2
1.040354433E1,-7.651086897E-2,-1.443169173E-2,2.283108793E-2
1.041354427E1,-7.162395120E-2,2.893974073E-2,5.726861767E-3
1.042354427E1,-4.657847434E-2,5.276348442E-2,-2.054034360E-2
1.043354430E1,-8.093964309E-3,5.093089119E-2,-3.703370690E-2
1.044354430E1,4.505131021E-2,-2.237293869E-2,-2.115120925E-2
1.045354430E1,7.803803682E-2,-9.201157838E-2,-8.323038928E-3
1.046354427E1,1.024726480E-1,-1.353830099E-1,-7.712173741E-3
1.047354430E1,1.116356254E-1,-1.476003081E-1,-3.642284125E-2
1.048354433E1,1.018617824E-1,-1.133918613E-1,-7.490734756E-2
1.049354433E1,7.009678334E-2,-6.818783283E-2,-9.140071273E-2
1.050354430E1,3.527746722E-2,-5.230533704E-2,-8.284860104E-2
1.051354433E1,1.756237634E-2,-6.513350457E-2,-6.940956414E-2
1.052354430E1,2.367102914E-2,-6.574437022E-2,-4.864014685E-2
1.053354430E1,3.283400834E-2,-6.085744873E-2,-8.323038928E-3
1.054354426E1,2.489275858E-2,-4.802928120E-2,2.222022414E-2
1.055354426E1,5.955935922E-3,-3.764457256E-2,4.115704447E-2
1.056354430E1,-8.704829961E-3,-1.626428775E-2,5.520694703E-2
1.057354426E1,-1.664607786E-2,5.115996581E-3,6.314819306E-2
1.058354430E1,-6.261368748E-3,2.771801129E-2,7.536549866E-2
1.059354433E1,7.177666761E-3,6.925684959E-2,9.063713253E-2
1.060354433E1,1.450804994E-2,1.077413559E-1,1.046870351E-1
1.061354436E1,1.878410578E-2,1.333976984E-1,1.126282811E-1
1.062354366E1,2.061670274E-2,1.462258697E-1,1.052978933E-1
1.063354319E1,1.634064503E-2,1.553888470E-1,6.925684959E-2
1.064354236E1,1.328631863E-2,1.327868253E-1,5.459608138E-2
1.065354166E1,7.788531948E-3,8.452847600E-2,4.848742858E-2
1.066354166E1,1.679879380E-3,3.260493279E-2,4.665483162E-2
1.067354079E1,-5.650503561E-3,-8.933904581E-3,4.298964143E-2
1.068354046E1,-2.031126991E-2,-4.802928120E-2,3.382666409E-2
1.069354049E1,-3.924809024E-2,-7.124216110E-2,1.672243699E-2
1.070354053E1,-6.001751125E-2,-6.207918003E-2,-2.825251780E-3
1.071354059E1,-7.223481685E-2,-4.008803144E-2,-1.931861416E-2
1.072354059E1,-6.612616032E-2,4.505131394E-3,-2.725986205E-2
1.073354056E1,-4.718934000E-2,3.077233583E-2,-1.565342210E-2
1.074354056E1,-2.458732575E-2,5.337435007E-2,8.781188168E-3
1.075354056E1,-3.207042580E-3,6.070473418E-2,3.504839167E-2
1.076354059E1,1.634064503E-2,6.925684959E-2,4.909829423E-2
1.077354052E1,2.489275858E-2,7.780896127E-2,4.726569727E-2
1.078354049E1,1.878410578E-2,7.536549866E-2,3.199406713E-2
1.079354049E1,8.399397135E-3,5.276348442E-2,1.183551457E-2
1.080354049E1,-3.817907767E-3,1.611157134E-2,-8.933904581E-3
1.081354046E1,-1.786780916E-2,-4.680754989E-2,-4.069889709E-2
1.082353979E1,-2.397646010E-2,-7.979427278E-2,-5.230533704E-2
1.083353985E1,-3.069597855E-2,-9.506590664E-2,-4.986187443E-2
1.084353989E1,-3.741549700E-2,-8.407033235E-2,-3.520110995E-2
1.085353985E1,-4.841107130E-2,-7.185302675E-2,-2.725986205E-2
1.086353989E1,-6.185010448E-2,-3.153591976E-2,-1.870774850E-2
1.087353992E1,-6.368270516E-2,1.488984004E-2,-1.320996135E-2
1.088353985E1,-6.185010448E-2,6.314819306E-2,-6.490443368E-3
1.089353985E1,-5.513058975E-2,1.242347211E-1,6.948592141E-3
1.090353985E1,-4.352414981E-2,1.859321147E-1,-9.926559869E-4
1.091353985E1,-4.046982154E-2,1.840995103E-1,-3.581197560E-2
1.092354055E1,-2.825251780E-2,1.523345262E-1,-7.124216110E-2
1.093354098E1,-1.298088674E-2,9.491318464E-2,-9.995282441E-2
1.094354185E1,-1.527163113E-4,2.344195358E-2,-1.072832122E-1
1.095354255E1,1.069014193E-3,-6.207918003E-2,-9.628763795E-2
1.096354252E1,4.581489484E-4,-1.347721517E-1,-7.124216110E-2
1.097354342E1,-8.093964309E-3,-1.549306959E-1,-3.764457256E-2
1.098354375E1,-2.825251780E-2,-1.292743534E-1,-1.603521290E-3
1.099354375E1,-7.956519723E-2,-4.192062840E-2,3.199406713E-2
1.100354372E1,-1.039998084E-1,4.848742858E-2,3.993531689E-2
1.101354365E1,-1.107193232E-1,1.388954818E-1,3.688098863E-2
1.102354365E1,-9.544769675E-2,2.036471963E-1,3.749185428E-2
1.103354368E1,-6.490442902E-2,2.274709493E-1,4.543310404E-2
1.104354368E1,-2.886338346E-2,2.005928755E-1,6.253732741E-2
1.105354368E1,7.788531948E-3,1.718822122E-1,8.636107296E-2
1.106354365E1,3.039054573E-2,1.138500124E-1,7.108944654E-2
1.107354368E1,4.932736978E-2,5.276348442E-2,4.421137273E-2
1.108354371E1,6.093380973E-2,2.405281924E-2,1.550070569E-2
1.109354368E1,4.810563847E-2,2.061670180E-3,8.399396902E-4
1.110354371E1,1.939497143E-2,-3.947716579E-2,2.672535367E-3
1.111354375E1,-1.374446787E-3,-3.703370690E-2,8.399396902E-4
1.112354441E1,-5.039638374E-3,2.672535367E-3,9.392052889E-3
1.113354434E1,-6.872233935E-3,5.215261877E-2,3.138320148E-2
1.114354431E1,-9.926560335E-3,9.430231899E-2,5.826127157E-2
1.115354434E1,4.688390717E-2,1.786017269E-1,7.108944654E-2
1.116354428E1,1.134682223E-1,1.065196246E-1,5.948300287E-2
1.117354424E1,1.458440721E-1,2.290744742E-4,4.360050708E-2
1.118354428E1,1.348485053E-1,-2.825251780E-3,2.283108793E-2
1.119354424E1,1.403462887E-1,2.038762718E-2,-1.565342210E-2
1.120354424E1,9.941831976E-2,2.222022414E-2,-4.741841555E-2
1.121354421E1,4.382958263E-2,2.527454868E-2,-7.002042979E-2
1.122354424E1,-1.298088674E-2,2.222022414E-2,-8.773551881E-2
1.123354427E1,-7.162395120E-2,2.290744742E-4,-1.048397496E-1
1.124354424E1,-1.229366288E-1,3.321579844E-2,-9.445504099E-2
1.125354421E1,-1.699732542E-1,8.575020730E-2,-4.558581859E-2
1.126354424E1,-1.828014255E-1,1.639409661E-1,6.070473418E-2
1.127354420E1,-1.314887404E-1,2.445751727E-1,1.114065498E-1
1.128354420E1,-6.856962293E-2,2.280818075E-1,9.674578160E-2
1.129354417E1,-2.596177394E-3,2.036471963E-1,6.559165567E-2
1.130354417E1,4.077525437E-2,2.018146068E-1,5.154175684E-2
1.131354420E1,7.315111160E-2,1.914298981E-1,7.597636431E-2
1.132354417E1,9.269879758E-2,1.505019218E-1,1.004109755E-1
1.133354420E1,9.453139454E-2,9.674578160E-2,9.308059514E-2
1.134354424E1,9.025534242E-2,6.498079002E-2,7.170030475E-2
1.135354424E1,4.627304152E-2,2.405281924E-2,1.366810966E-2
1.136354427E1,4.123340361E-3,-1.565342210E-2,-8.323038928E-3
1.137354424E1,-3.802636266E-2,-5.413793400E-2,-5.879578181E-3
1.138354424E1,-7.406741381E-2,-7.490734756E-2,1.244637929E-2
1.139354427E1,-9.605856240E-2,-6.574437022E-2,1.916589774E-2
1.140354423E1,-1.015563458E-1,-3.214678168E-2,2.222022414E-2
1.141354423E1,-9.483683109E-2,2.099849284E-2,2.466368489E-2
1.142354427E1,-8.200865984E-2,7.292203605E-2,3.627012298E-2
1.143354427E1,-6.734789163E-2,9.369145334E-2,4.298964143E-2
1.144354427E1,-3.069597855E-2,9.796751291E-2,1.916589774E-2
1.145354423E1,-7.635815418E-4,8.636107296E-2,-6.490443368E-3
1.146354430E1,2.306016348E-2,5.276348442E-2,-1.504255645E-2
1.147354433E1,3.161227703E-2,8.781188168E-3,2.672535367E-3
1.148354430E1,2.794708498E-2,-2.481640130E-2,2.832887508E-2
1.149354433E1,1.817324013E-2,-3.092505224E-2,4.543310404E-2
1.150354436E1,4.734205548E-3,-1.198823005E-2,4.237877578E-2
1.151354436E1,-8.093964309E-3,1.000291854E-2,2.710714564E-2
1.152354430E1,-1.420261711E-2,2.771801129E-2,6.337726954E-3
1.153354426E1,-2.153299935E-2,3.688098863E-2,-1.320996135E-2
1.154354430E1,-2.580905706E-2,2.160935849E-2,-1.504255645E-2
1.155354430E1,-2.336559631E-2,8.399396902E-4,-9.544769302E-3
1.156354426E1,-1.542434748E-2,-2.909245715E-2,-5.879578181E-3
1.157354430E1,-8.093964309E-3,-6.940956414E-2,-8.323038928E-3
1.158354433E1,-1.985311974E-3,-1.072832122E-1,-2.176207490E-2
1.159354433E1,4.123340361E-3,-1.176679209E-1,-3.520110995E-2
1.160354429E1,1.084285788E-2,-9.140071273E-2,-3.764457256E-2
1.161354433E1,5.345070735E-3,-3.397937864E-2,-2.603813075E-2
1.162354369E1,-2.947424725E-2,5.765040591E-2,-4.046982154E-3
1.163354296E1,-4.841107130E-2,1.101848185E-1,-4.046982154E-3
1.164354226E1,-4.780020565E-2,1.425606757E-1,-1.076649968E-2
1.165354162E1,-3.313944116E-2,1.291216463E-1,-1.992947794E-2
1.166354072E1,-1.237002108E-2,7.719809562E-2,-2.176207490E-2
1.167354072E1,8.399397135E-3,9.392052889E-3,-1.748601720E-2
1.168354003E1,2.244929783E-2,-6.146831438E-2,-1.259909570E-2
1.169354002E1,2.794708498E-2,-1.195005104E-1,-7.712173741E-3
1.170353939E1,2.489275858E-2,-1.286634952E-1,-1.603521290E-3
1.171353939E1,-6.261368748E-3,-7.124216110E-2,3.138320148E-2
1.172353942E1,-4.474587739E-2,-3.153591976E-2,4.604396969E-2
1.173353909E1,-8.323039114E-2,-2.825251780E-3,3.077233583E-2
1.174353886E1,-9.300423414E-2,2.099849284E-2,-7.712173741E-3
1.175353889E1,-7.284568250E-2,5.398521572E-2,-4.864014685E-2
1.176353882E1,-4.474587739E-2,7.170030475E-2,-6.330090761E-2
1.177353882E1,-1.970040426E-2,5.581781268E-2,-4.741841555E-2
1.178353886E1,-6.872233935E-3,1.794416644E-2,-1.931861416E-2
1.179353882E1,1.679879380E-3,-2.848159149E-2,-4.657847341E-3
1.180353879E1,1.878410578E-2,-6.330090761E-2,-2.237293869E-2
1.181353879E1,2.306016348E-2,-6.085744873E-2,-5.108360574E-2
1.182353845E1,2.550362423E-2,-6.146831438E-2,-7.735081017E-2
1.183353849E1,2.489275858E-2,-3.581197560E-2,-7.246389240E-2
1.184353845E1,1.572977938E-2,-1.076649968E-2,-3.886630014E-2
1.185353848E1,1.267545391E-2,1.061378326E-2,-7.101308554E-3
1.186353852E1,2.977968007E-2,4.360050708E-2,3.894265974E-3
1.187353848E1,6.032294407E-2,9.369145334E-2,2.061670180E-3
1.188353845E1,8.292495459E-2,1.419498175E-1,5.726861767E-3
1.189353845E1,7.742717117E-2,1.566105783E-1,3.749185428E-2
1.190353848E1,5.849034712E-2,1.364520192E-1,6.192646548E-2
1.191353842E1,4.444044828E-2,1.205695271E-1,8.269587904E-2
1.192353905E1,2.916881628E-2,6.925684959E-2,8.025242388E-2
1.193353975E1,1.634064503E-2,4.970915988E-2,7.170030475E-2
1.194354042E1,-3.207042580E-3,3.138320148E-2,5.154175684E-2
1.195354105E1,-1.847867295E-2,1.611157134E-2,3.382666409E-2
1.196354191E1,-2.641992271E-2,2.588541433E-2,2.222022414E-2
1.197354198E1,-2.947424725E-2,4.237877578E-2,1.000291854E-2
1.198354268E1,-1.542434748E-2,6.131559983E-2,2.672535367E-3
1.199354265E1,2.290744567E-3,6.559165567E-2,1.061378326E-2
1.200354328E1,1.756237634E-2,7.475463301E-2,3.382666409E-2
1.201354328E1,2.122756653E-2,4.787656292E-2,5.154175684E-2
1.202354321E1,1.756237634E-2,8.170322515E-3,5.703954399E-2
1.203354354E1,1.267545391E-2,-2.909245715E-2,4.115704447E-2
1.204354378E1,2.901609987E-3,-4.008803144E-2,-7.712173741E-3
1.205354381E1,-7.635815418E-4,-4.741841555E-2,-4.741841555E-2
1.206354384E1,-2.596177394E-3,-4.314235970E-2,-5.169447139E-2
1.207354381E1,-6.872233935E-3,-2.359467000E-2,-1.992947794E-2
1.208354384E1,-9.926560335E-3,-2.481640130E-2,-1.603521290E-3
1.209354388E1,-6.872233935E-3,-2.176207490E-2,6.948592141E-3
1.210354388E1,-2.596177394E-3,6.948592141E-3,3.894265974E-3
1.211354391E1,4.123340361E-3,2.283108793E-2,-5.879578181E-3
1.212354424E1,1.023199316E-2,4.421137273E-2,3.283400787E-3
1.213354424E1,2.061670274E-2,2.222022414E-2,2.344195358E-2
1.214354428E1,5.910121277E-2,2.466368489E-2,4.665483162E-2
1.215354424E1,9.086620808E-2,4.604396969E-2,4.726569727E-2
1.216354424E1,1.098030284E-1,3.077233583E-2,4.787656292E-2
1.217354427E1,1.030835137E-1,3.749185428E-2,3.260493279E-2
1.218354427E1,8.536841720E-2,5.459608138E-2,1.366810966E-2
1.219354427E1,6.459899992E-2,1.016327068E-1,4.505131394E-3
1.220354424E1,4.444044828E-2,1.443932652E-1,1.916589774E-2
1.221354427E1,1.450804994E-2,1.724930704E-1,5.520694703E-2
1.222354431E1,-4.428773187E-3,1.877647042E-1,9.246972948E-2
1.223354427E1,-2.596177394E-3,1.993711442E-1,1.095739529E-1
1.224354430E1,2.061670274E-2,2.091449946E-1,1.095739529E-1
1.225354434E1,5.787948146E-2,2.451860309E-1,8.269587904E-2
1.226354434E1,6.704246253E-2,2.445751727E-1,6.925684959E-2
1.227354427E1,6.826419383E-2,2.097558528E-1,7.903069258E-2
1.228354424E1,5.604688451E-2,1.517236531E-1,8.391761035E-2
1.229354427E1,4.871650413E-2,7.903069258E-2,6.742425263E-2
1.230354427E1,4.199698567E-2,4.543310404E-2,4.421137273E-2
1.231354424E1,2.122756653E-2,4.543310404E-2,3.016147204E-2
1.232354427E1,-2.580905706E-2,4.726569727E-2,1.733330078E-2
1.233354430E1,-7.528914511E-2,4.787656292E-2,-1.076649968E-2
1.234354430E1,-9.300423414E-2,3.077233583E-2,-6.757696718E-2
1.235354424E1,-5.879577994E-2,1.672243699E-2,-8.468119800E-2
1.236354427E1,-1.053742506E-2,1.244637929E-2,-5.719225854E-2
1.237354430E1,1.450804994E-2,8.170322515E-3,-6.490443368E-3
1.238354423E1,2.306016348E-2,-1.992947794E-2,2.649627998E-2
1.239354420E1,5.054909736E-2,-2.725986205E-2,3.565925732E-2
1.240354423E1,7.803803682E-2,-5.879578181E-3,8.170322515E-3
1.241354420E1,9.758572280E-2,3.260493279E-2,-1.809688285E-2
1.242354420E1,8.903361112E-2,8.697193861E-2,-1.504255645E-2
1.243354416E1,1.878410578E-2,1.340085566E-1,1.733330078E-2
1.244354416E1,-1.970040426E-2,1.627192348E-1,4.482223839E-2
1.245354420E1,-3.741549700E-2,1.853212416E-1,5.032002553E-2
1.246354416E1,-3.436116874E-2,1.950950921E-1,5.703954399E-2
1.247354420E1,-2.703078650E-2,1.877647042E-1,5.703954399E-2
1.248354423E1,-5.650503561E-3,1.682170182E-1,4.726569727E-2
1.249354423E1,2.367102914E-2,1.450041384E-1,3.932445124E-2
1.250354423E1,7.009678334E-2,1.413389444E-1,5.520694703E-2
1.251354420E1,1.104138941E-1,1.407280862E-1,9.246972948E-2
1.252354420E1,1.171334088E-1,1.010218412E-1,1.169043332E-1
1.253354423E1,1.055269688E-1,7.414376736E-2,1.077413559E-1
1.254354420E1,8.170322329E-2,2.893974073E-2,8.513934165E-2
1.255354420E1,6.154467165E-2,1.244637929E-2,4.726569727E-2
1.256354423E1,5.054909736E-2,3.016147204E-2,2.527454868E-2
1.257354423E1,3.955352306E-2,6.009386852E-2,2.955060638E-2
1.258354426E1,2.367102914E-2,1.022435725E-1,6.314819306E-2
1.259354423E1,9.010262787E-3,1.511127949E-1,1.077413559E-1
1.260354426E1,4.581489484E-4,1.987602860E-1,1.364520192E-1
1.261354429E1,4.810563847E-2,2.115884423E-1,1.608866304E-1
1.262354359E1,8.659014851E-2,1.822669208E-1,1.370628923E-1
1.263354293E1,1.238529310E-1,1.248455867E-1,1.077413559E-1
1.264354229E1,1.330159009E-1,5.581781268E-2,9.246972948E-2
1.265354142E1,1.116356254E-1,-1.198823005E-2,9.918924421E-2
1.266354069E1,8.048149943E-2,-4.497495294E-2,9.430231899E-2
1.267353999E1,4.871650413E-2,-2.237293869E-2,8.513934165E-2
1.268354002E1,2.061670274E-2,2.832887508E-2,7.353290170E-2
1.269353936E1,4.123340361E-3,7.475463301E-2,6.803511828E-2
1.270353899E1,-1.542434748E-2,1.224021241E-1,4.298964143E-2
1.271353832E1,-1.359175146E-2,1.370628923E-1,2.710714564E-2
1.272353839E1,-8.093964309E-3,1.285107732E-1,2.466368489E-2
1.273353842E1,-1.298088674E-2,9.185886383E-2,3.871358559E-2
1.274353842E1,-2.336559631E-2,5.154175684E-2,4.604396969E-2
1.275353839E1,-2.641992271E-2,2.955060638E-2,4.726569727E-2
1.276353842E1,-3.375030309E-2,6.337726954E-3,2.955060638E-2
1.277353835E1,-3.863722831E-2,-1.565342210E-2,6.337726954E-3
1.278353832E1,-3.741549700E-2,-5.169447139E-2,-2.848159149E-2
1.279353832E1,-2.580905706E-2,-1.036180183E-1,-6.146831438E-2
1.280353835E1,-1.359175146E-2,-8.284860104E-2,-5.230533704E-2
1.281353839E1,-4.428773187E-3,-4.802928120E-2,-1.443169173E-2
1.282353835E1,-5.039638374E-3,-1.687515154E-2,1.427897532E-2
1.283353838E1,-5.039638374E-3,3.283400787E-3,6.337726954E-3
1.284353842E1,8.399397135E-3,1.305724494E-2,-2.603813075E-2
1.285353838E1,3.711006418E-2,8.781188168E-3,-5.291620269E-2
1.286353838E1,6.704246253E-2,-1.076649968E-2,-5.047274008E-2
1.287353838E1,8.475755155E-2,-2.664899640E-2,-2.664899640E-2
1.288353838E1,7.559457421E-2,-7.735081017E-2,-2.214386594E-3
1.289353842E1,7.131851465E-2,-7.735081017E-2,1.427897532E-2
1.290353838E1,9.392052889E-2,-4.657847341E-3,4.848742858E-2
1.291353838E1,1.128573567E-1,3.443752974E-2,7.108944654E-2
1.292353908E1,1.177442744E-1,8.452847600E-2,6.803511828E-2
1.293353972E1,1.311833113E-1,2.152536362E-1,5.459608138E-2
1.294354035E1,1.470658034E-1,3.960697651E-1,4.726569727E-2
1.295354122E1,1.354593635E-1,6.404158473E-1,6.498079002E-2
1.296354192E1,3.100141138E-2,5.732206702E-1,8.208502084E-2
1.297354262E1,-1.302670091E-1,3.172681332E-1,1.010218412E-1
1.298354258E1,-1.724167168E-1,1.456149966E-1,8.819366992E-2
1.299354325E1,-1.437060535E-1,-2.359467000E-2,6.620252132E-2
1.300354358E1,-7.651086897E-2,-1.909717470E-1,4.054617882E-2
1.301354428E1,1.267545391E-2,-3.601814210E-1,1.488984004E-2
1.302354421E1,9.880745411E-2,-4.890739918E-1,3.283400787E-3
1.303354418E1,1.660026312E-1,-5.190063715E-1,-1.015563495E-2
1.304354418E1,1.879937798E-1,-4.499786198E-1,-3.092505224E-2
1.305354418E1,1.507309973E-1,-3.155882657E-1,-5.535966158E-2
1.306354414E1,5.345070735E-3,-1.989129931E-1,-5.963572115E-2
1.307354414E1,-9.117163718E-2,-1.518763751E-1,-6.330090761E-2
1.308354421E1,-1.418734491E-1,-9.262244403E-2,-6.452263892E-2
1.309354424E1,-1.479821056E-1,-3.153591976E-2,-5.230533704E-2
1.310354421E1,-1.357648075E-1,-2.054034360E-2,-1.687515154E-2
1.311354424E1,-1.479821056E-1,-4.680754989E-2,1.244637929E-2
1.312354428E1,-1.669189334E-1,-2.603813075E-2,3.871358559E-2
1.313354421E1,-1.815796942E-1,3.627012298E-2,3.932445124E-2
1.314354421E1,-1.913535446E-1,7.475463301E-2,1.305724494E-2
1.315354421E1,-1.773036420E-1,3.382666409E-2,-2.542726509E-2
1.316354421E1,-1.614211351E-1,2.222022414E-2,-2.848159149E-2
1.317354424E1,-1.595885456E-1,1.000291854E-2,-1.992947794E-2
1.318354421E1,-1.620320082E-1,-1.443169173E-2,-4.657847341E-3
1.319354421E1,-1.595885456E-1,-8.323038928E-3,1.488984004E-2
1.320354424E1,-1.528690308E-1,1.183551457E-2,1.794416644E-2
1.321354421E1,-1.473712474E-1,3.688098863E-2,8.170322515E-3
1.322354421E1,-1.345430762E-1,7.231117040E-2,-4.046982154E-3
1.323354421E1,-1.149953827E-1,1.010218412E-1,-1.198823005E-2
1.324354424E1,-6.918048859E-2,1.089630872E-1,-5.879578181E-3
1.325354427E1,-3.924809024E-2,8.941540122E-2,4.505131394E-3
1.326354424E1,-1.786780916E-2,7.231117040E-2,5.726861767E-3
1.327354420E1,-1.053742506E-2,6.742425263E-2,2.061670180E-3
1.328354420E1,-2.031126991E-2,3.688098863E-2,-5.268712528E-3
1.329354424E1,-3.436116874E-2,-9.544769302E-3,-1.687515154E-2
1.330354424E1,-3.741549700E-2,-4.497495294E-2,-3.336851299E-2
1.331354420E1,-2.886338346E-2,-5.658139288E-2,-4.925100878E-2
1.332354424E1,-2.458732575E-2,-3.703370690E-2,-4.008803144E-2
1.333354427E1,-3.985895589E-2,1.000291854E-2,1.122464892E-2
1.334354424E1,-5.268712714E-2,3.871358559E-2,4.848742858E-2
1.335354424E1,-6.123924255E-2,6.803511828E-2,6.559165567E-2
1.336354430E1,-6.368270516E-2,7.536549866E-2,5.276348442E-2
1.337354434E1,-4.841107130E-2,7.108944654E-2,2.710714564E-2
1.338354427E1,-2.214386500E-2,7.108944654E-2,1.733330078E-2
1.339354427E1,2.901609987E-3,7.231117040E-2,3.932445124E-2
1.340354430E1,1.328631863E-2,7.475463301E-2,8.269587904E-2
1.341354423E1,9.621127509E-3,7.597636431E-2,1.217912585E-1
1.342354420E1,-1.847867295E-2,7.170030475E-2,1.236238554E-1
1.343354420E1,-2.031126991E-2,6.742425263E-2,7.780896127E-2
1.344354420E1,-3.817907767E-3,6.559165567E-2,1.611157134E-2
1.345354423E1,1.450804994E-2,5.459608138E-2,-2.420553565E-2
1.346354420E1,1.084285788E-2,1.061378326E-2,-3.214678168E-2
1.347354420E1,-1.603521220E-2,-4.741841555E-2,-2.481640130E-2
1.348354420E1,-3.924809024E-2,-7.368562371E-2,-1.626428775E-2
1.349354420E1,-4.535674304E-2,-5.291620269E-2,-4.046982154E-3
1.350354420E1,-4.902193695E-2,-2.970332280E-2,4.505131394E-3
1.351354420E1,-6.062837690E-2,-2.970332280E-2,-1.931861416E-2
1.352354420E1,-6.062837690E-2,-6.207918003E-2,-5.169447139E-2
1.353354423E1,-4.230241850E-2,-8.040513843E-2,-7.490734756E-2
1.354354420E1,-2.275473066E-2,-7.673994452E-2,-7.796167582E-2
1.355354416E1,-2.580905706E-2,-6.513350457E-2,-6.757696718E-2
1.356354416E1,-5.390885845E-2,-4.619668424E-2,-5.230533704E-2
1.357354420E1,-9.422596544E-2,-3.581197560E-2,-4.619668424E-2
1.358354423E1,-1.235474944E-1,-2.481640130E-2,-4.436408728E-2
1.359354420E1,-1.333213449E-1,-2.725986205E-2,-4.436408728E-2
1.360354423E1,-1.186605766E-1,-6.818783283E-2,-5.963572115E-2
1.361354426E1,-8.750644326E-2,-9.017898142E-2,-7.002042979E-2
1.362354356E1,-6.307183951E-2,-9.201157838E-2,-5.230533704E-2
1.363354286E1,-5.574145541E-2,-7.796167582E-2,-1.504255645E-2
1.364354200E1,-7.590000331E-2,-4.375322163E-2,2.955060638E-2
1.365354186E1,-1.113301888E-1,1.061378326E-2,5.398521572E-2
1.366354093E1,-1.327104717E-1,6.009386852E-2,3.138320148E-2
1.367354093E1,-1.259909570E-1,8.636107296E-2,-1.870774850E-2
1.368354036E1,-9.178250283E-2,9.552405030E-2,-5.474879593E-2
1.369354033E1,-3.802636266E-2,6.864598393E-2,-2.359467000E-2
1.370354029E1,-3.130684420E-2,2.649627998E-2,2.283108793E-2
1.371353963E1,-3.436116874E-2,-8.933904581E-3,3.871358559E-2
1.372353892E1,-4.291328415E-2,-3.947716579E-2,2.405281924E-2
1.373353896E1,-5.513058975E-2,-3.642284125E-2,-9.544769302E-3
1.374353896E1,-6.918048859E-2,-1.809688285E-2,-4.130976275E-2
1.375353896E1,-7.467827946E-2,2.290744742E-4,-4.925100878E-2
1.376353896E1,-6.246097013E-2,3.138320148E-2,-4.069889709E-2
1.377353896E1,-3.802636266E-2,5.215261877E-2,-1.748601720E-2
1.378353899E1,-1.527163113E-4,3.688098863E-2,1.611157134E-2
1.379353896E1,3.527746722E-2,2.649627998E-2,1.977676153E-2
1.380353896E1,8.353582025E-2,3.382666409E-2,2.222022414E-2
1.381353899E1,1.256855279E-1,2.344195358E-2,2.649627998E-2
1.382353896E1,1.605048478E-1,-3.214678168E-2,9.392052889E-3
1.383353899E1,1.812742651E-1,-1.023962870E-1,-2.176207490E-2
1.384353902E1,1.934915632E-1,-1.311069578E-1,-3.459024429E-2
1.385353902E1,1.837177277E-1,-1.427133977E-1,-7.101308554E-3
1.386353906E1,1.427897513E-1,-1.537089646E-1,3.932445124E-2
1.387353902E1,5.787948146E-2,-1.372155994E-1,3.810271993E-2
1.388353902E1,2.183843218E-2,-8.223773539E-2,-3.817907709E-4
1.389353905E1,1.389718428E-2,7.559457328E-3,-3.581197560E-2
1.390353902E1,1.267545391E-2,1.107956842E-1,-4.008803144E-2
1.391353899E1,3.512475174E-3,1.621083617E-1,-6.490443368E-3
1.392353965E1,-1.481348183E-2,1.602757722E-1,3.993531689E-2
1.393354035E1,-2.580905706E-2,1.260673106E-1,7.047858089E-2
1.394354122E1,-2.519819140E-2,6.742425263E-2,5.826127157E-2
1.395354135E1,-2.153299935E-2,-1.259909570E-2,1.366810966E-2
1.396354228E1,-2.153299935E-2,-1.237765700E-1,-6.146831438E-2
1.397354228E1,-3.252857551E-2,-1.592067480E-1,-8.956811577E-2
1.398354285E1,-6.612616032E-2,-1.530981064E-1,-8.162686974E-2
1.399354285E1,-1.156062484E-1,-1.103375331E-1,-4.497495294E-2
1.400354285E1,-1.650863290E-1,-4.253149405E-2,-9.926559869E-4
1.401354355E1,-1.895209402E-1,4.115704447E-2,3.871358559E-2
1.402354425E1,-1.864666194E-1,1.126282811E-1,6.253732741E-2
1.403354422E1,-1.522581577E-1,1.651626974E-1,6.986771524E-2
1.404354422E1,-9.605856240E-2,1.859321147E-1,7.475463301E-2
1.405354418E1,-9.926560335E-3,1.486693323E-1,7.597636431E-2
1.406354418E1,3.161227703E-2,1.046870351E-1,6.620252132E-2
1.407354415E1,5.971207842E-2,8.697193861E-2,5.032002553E-2
1.408354418E1,7.987063378E-2,7.841982692E-2,4.360050708E-2
1.409354421E1,7.925976813E-2,5.398521572E-2,3.443752974E-2
1.410354418E1,6.582073122E-2,3.688098863E-2,8.781188168E-3
1.411354421E1,4.749477282E-2,9.392052889E-3,-3.153591976E-2
1.412354425E1,3.161227703E-2,-2.237293869E-2,-5.780312419E-2
1.413354418E1,2.306016348E-2,-2.176207490E-2,-4.314235970E-2
1.414354414E1,1.572977938E-2,-7.101308554E-3,-2.825251780E-3
1.415354414E1,8.399397135E-3,-1.015563495E-2,5.032002553E-2
1.416354415E1,1.634064503E-2,-5.268712528E-3,5.398521572E-2
1.417354418E1,4.382958263E-2,6.337726954E-3,3.504839167E-2
1.418354414E1,7.254024595E-2,-1.603521290E-3,4.505131394E-3
1.419354411E1,8.536841720E-2,-3.520110995E-2,-1.931861416E-2
1.420354411E1,9.453139454E-2,-7.979427278E-2,-3.581197560E-2
1.421354414E1,9.697485715E-2,-1.054506153E-1,-3.764457256E-2
1.422354418E1,8.536841720E-2,-1.176679209E-1,-2.970332280E-2
1.423354414E1,6.093380973E-2,-1.036180183E-1,-1.687515154E-2
1.424354418E1,2.855795063E-2,-4.192062840E-2,-7.712173741E-3
1.425354421E1,2.367102914E-2,5.115996581E-3,-1.137736533E-2
1.426354414E1,3.405573592E-2,3.077233583E-2,-2.542726509E-2
1.427354411E1,5.604688451E-2,3.138320148E-2,-4.130976275E-2
1.428354411E1,7.681630552E-2,6.337726954E-3,-5.169447139E-2
1.429354414E1,8.170322329E-2,-2.909245715E-2,-4.619668424E-2
1.430354414E1,7.009678334E-2,-7.246389240E-2,-2.359467000E-2
1.431354411E1,4.138612002E-2,-1.017854214E-1,-9.926559869E-4
1.432354414E1,-1.527163113E-4,-1.146135926E-1,1.794416644E-2
1.433354417E1,-7.040221989E-2,-8.895725012E-2,1.794416644E-2
1.434354414E1,-1.039998084E-1,-2.176207490E-2,8.399396902E-4
1.435354414E1,-1.168279797E-1,6.375905871E-2,-7.101308554E-3
1.436354420E1,-1.211040318E-1,1.376737505E-1,-7.712173741E-3
1.437354424E1,-1.217148975E-1,1.724930704E-1,2.061670180E-3
1.438354417E1,-1.186605766E-1,1.529453844E-1,5.726861767E-3
1.439354417E1,-1.131627858E-1,9.002626687E-2,-9.926559869E-4
1.440354417E1,-1.101084575E-1,3.894265974E-3,-1.809688285E-2
1.441354414E1,-1.058324054E-1,-8.956811577E-2,-4.802928120E-2
1.442354414E1,-1.033889428E-1,-1.873065531E-1,-1.011745557E-1
1.443354414E1,-1.052215397E-1,-2.086868435E-1,-1.237765700E-1
1.444354417E1,-1.156062484E-1,-2.257910669E-1,-1.207222417E-1
1.445354420E1,-1.382082552E-1,-2.166280895E-1,-1.048397496E-1
1.446354417E1,-1.516472995E-1,-1.836413592E-1,-9.750936180E-2
1.447354417E1,-1.632537395E-1,-1.506546438E-1,-9.812022746E-2
1.448354417E1,-1.724167168E-1,-1.359938681E-1,-1.072832122E-1
1.449354423E1,-1.577559561E-1,-8.773551881E-2,-1.213331074E-1
1.450354427E1,-1.204931661E-1,1.244637929E-2,-1.201113760E-1
1.451354423E1,-8.811730891E-2,1.547779888E-1,-6.696610153E-2
1.452354423E1,-1.021672115E-1,1.871538460E-1,-2.237293869E-2
1.453354427E1,-1.198823079E-1,1.645518243E-1,6.948592141E-3
1.454354423E1,-1.198823079E-1,1.052978933E-1,5.726861767E-3
1.455354420E1,-9.850201756E-2,4.237877578E-2,-1.504255645E-2
1.456354420E1,-6.795875728E-2,-5.268712528E-3,-3.703370690E-2
1.457354423E1,-4.169155285E-2,-2.664899640E-2,-3.642284125E-2
1.458354426E1,-2.825251780E-2,-2.176207490E-2,-1.259909570E-2
1.459354423E1,-3.436116874E-2,2.290744742E-4,2.344195358E-2
1.460354426E1,-4.230241850E-2,3.932445124E-2,6.070473418E-2
1.461354430E1,-2.458732575E-2,5.703954399E-2,5.276348442E-2
1.462354360E1,7.788531948E-3,6.864598393E-2,1.672243699E-2
1.463354290E1,4.382958263E-2,7.414376736E-2,-2.176207490E-2
1.464354203E1,7.864890248E-2,1.046870351E-1,-2.054034360E-2
1.465354140E1,9.575312585E-2,1.272890419E-1,2.527454868E-2
1.466354066E1,9.453139454E-2,1.126282811E-1,7.841982692E-2
1.467353976E1,9.086620808E-2,7.475463301E-2,1.016327068E-1
1.468353909E1,9.453139454E-2,4.237877578E-2,8.452847600E-2
1.469353909E1,1.317941695E-1,-1.259909570E-2,1.550070569E-2
1.470353846E1,1.605048478E-1,-5.169447139E-2,-2.970332280E-2
1.471353846E1,1.757764816E-1,-6.269004941E-2,-4.314235970E-2
1.472353899E1,1.666134894E-1,-4.864014685E-2,-2.237293869E-2
1.473353906E1,1.409571618E-1,-1.443169173E-2,9.392052889E-3
1.474353902E1,9.697485715E-2,2.344195358E-2,2.588541433E-2
1.475353899E1,4.932736978E-2,6.742425263E-2,2.405281924E-2
1.476353902E1,5.955935922E-3,1.077413559E-1,1.183551457E-2
1.477353899E1,-2.153299935E-2,1.193477958E-1,-1.076649968E-2
1.478353899E1,-1.359175146E-2,6.742425263E-2,-4.619668424E-2
1.479353892E1,1.145372353E-2,-3.436116967E-3,-6.024658307E-2
1.480353892E1,4.810563847E-2,-6.391177326E-2,-4.925100878E-2
1.481353896E1,8.292495459E-2,-9.078984708E-2,-1.809688285E-2
1.482353892E1,9.819658846E-2,-7.979427278E-2,1.427897532E-2
1.483353896E1,8.903361112E-2,-4.925100878E-2,3.077233583E-2
1.484353899E1,6.826419383E-2,3.283400787E-3,2.222022414E-2
1.485353899E1,4.871650413E-2,3.810271993E-2,-1.198823005E-2
1.486353902E1,5.849034712E-2,6.314819306E-2,-3.642284125E-2
1.487353899E1,1.153008118E-1,6.375905871E-2,-2.420553565E-2
1.488353899E1,1.495092660E-1,1.244637929E-2,1.855503209E-2
1.489353902E1,1.672243625E-1,-6.330090761E-2,6.498079002E-2
1.490353899E1,1.647808999E-1,-1.036180183E-1,8.819366992E-2
1.491353895E1,1.464549452E-1,-1.140027270E-1,8.758280426E-2
1.492353962E1,1.232420653E-1,-9.445504099E-2,7.475463301E-2
1.493354032E1,1.067487001E-1,-5.902485549E-2,5.337435007E-2
1.494354118E1,1.012509167E-1,-2.054034360E-2,3.138320148E-2
1.495354182E1,1.030835137E-1,2.038762718E-2,3.749185428E-2
1.496354252E1,8.720101416E-2,6.559165567E-2,7.841982692E-2
1.497354342E1,4.810563847E-2,5.765040591E-2,7.414376736E-2
1.498354408E1,7.177666761E-3,3.688098863E-2,3.627012298E-2
1.499354405E1,-1.786780916E-2,4.360050708E-2,-1.198823005E-2
1.500354468E1,-3.191770986E-2,4.970915988E-2,-4.864014685E-2
1.501354468E1,-2.886338346E-2,1.122464892E-2,-7.796167582E-2
1.502354412E1,-2.886338346E-2,-2.661081851E-1,-6.513350457E-2
1.503354405E1,-2.092213556E-2,-4.957934916E-1,-4.253149405E-2
1.504354408E1,-2.397646010E-2,-5.318345428E-1,-4.741841555E-2
1.505354408E1,-5.268712714E-2,-3.632357419E-1,-5.963572115E-2
1.506354405E1,-9.361509979E-2,-1.622610837E-1,-6.879869848E-2
1.507354405E1,-1.168279797E-1,-4.741841555E-2,-8.223773539E-2
1.508354411E1,-7.345654815E-2,-1.506546438E-1,-1.078940704E-1
1.509354415E1,3.100141138E-2,-3.436880708E-1,-1.408807933E-1
1.510354411E1,1.379028261E-1,-4.243222773E-1,-1.530981064E-1
1.511354414E1,1.873829067E-1,-3.528510332E-1,-1.317178160E-1
1.512354418E1,1.556179225E-1,-2.135737687E-1,-8.101600409E-2
1.513354411E1,6.948592514E-2,-8.223773539E-2,-1.565342210E-2
1.514354408E1,-4.413501546E-2,6.498079002E-2,2.771801129E-2
1.515354408E1,-5.818491429E-2,1.132391468E-1,-7.712173741E-3
1.516354408E1,-3.558290005E-2,1.590540409E-1,-4.619668424E-2
1.517354411E1,-2.580905706E-2,1.712713391E-1,-5.047274008E-2
1.518354411E1,-5.451972410E-2,1.236238554E-1,-2.603813075E-2
1.519354411E1,-9.972374886E-2,4.909829423E-2,-8.323038928E-3
1.520354414E1,-1.327104717E-1,2.649627998E-2,-1.015563495E-2
1.521354414E1,-1.467603743E-1,4.787656292E-2,-2.298380435E-2
1.522354418E1,-1.467603743E-1,5.154175684E-2,-3.031418845E-2
1.523354414E1,-1.174388453E-1,8.452847600E-2,-2.542726509E-2
1.524354418E1,-8.261952549E-2,1.230129898E-1,-8.933904581E-3
1.525354421E1,-5.085453019E-2,1.498910636E-1,1.183551457E-2
1.526354417E1,-3.008511290E-2,1.657735556E-1,3.627012298E-2
1.527354414E1,-2.580905706E-2,1.755474061E-1,6.009386852E-2
1.528354414E1,-2.764165215E-2,1.682170182E-1,6.070473418E-2
1.529354417E1,-2.092213556E-2,1.376737505E-1,2.405281924E-2
1.530354417E1,2.290744567E-3,9.980010986E-2,-3.275764734E-2
1.531354414E1,2.550362423E-2,7.047858089E-2,-6.757696718E-2
1.532354417E1,2.000583708E-2,3.504839167E-2,-2.603813075E-2
1.533354420E1,-1.114829071E-2,8.399396902E-4,3.504839167E-2
1.534354417E1,-3.924809024E-2,-2.481640130E-2,6.559165567E-2
1.535354417E1,-4.780020565E-2,-3.214678168E-2,5.215261877E-2
1.536354424E1,-3.619376570E-2,-2.237293869E-2,1.000291854E-2
1.537354427E1,-1.664607786E-2,-8.323038928E-3,-3.275764734E-2
1.538354420E1,-9.926560335E-3,-7.101308554E-3,-6.269004941E-2
1.539354417E1,-2.031126991E-2,-2.237293869E-2,-7.918340713E-2
1.540354420E1,-3.680463135E-2,-2.542726509E-2,-7.124216110E-2
1.541354414E1,-6.368270516E-2,-4.741841555E-2,-3.153591976E-2
1.542354414E1,-7.223481685E-2,-7.307475805E-2,-2.970332280E-2
1.543354414E1,-6.918048859E-2,-8.223773539E-2,-5.474879593E-2
1.544354417E1,-6.673702598E-2,-9.078984708E-2,-8.834638447E-2
1.545354420E1,-7.345654815E-2,-1.005636901E-1,-1.048397496E-1
1.546354417E1,-9.056077152E-2,-1.017854214E-1,-1.042288840E-1
1.547354420E1,-1.027780771E-1,-6.696610153E-2,-8.223773539E-2
1.548354420E1,-1.156062484E-1,-1.870774850E-2,-3.886630014E-2
1.549354417E1,-1.272126883E-1,1.611157134E-2,5.115996581E-3
1.550354413E1,-1.204931661E-1,8.452847600E-2,2.710714564E-2
1.551354413E1,-1.033889428E-1,1.260673106E-1,1.366810966E-2
1.552354416E1,-7.528914511E-2,1.413389444E-1,-1.626428775E-2
1.553354420E1,-4.841107130E-2,1.187369302E-1,-5.108360574E-2
1.554354416E1,-1.908953860E-2,6.864598393E-2,-7.735081017E-2
1.555354416E1,1.145372353E-2,-1.320996135E-2,-7.429648191E-2
1.556354420E1,3.222314268E-2,-1.256091595E-1,-5.108360574E-2
1.557354420E1,5.665775016E-2,-2.612212598E-1,-2.115120925E-2
1.558354423E1,1.049161032E-1,-4.255439937E-1,-9.926559869E-4
1.559354420E1,1.965458989E-1,-6.155230999E-1,-1.931861416E-2
1.560354423E1,2.637410760E-1,-6.472880840E-1,-4.314235970E-2
1.561354426E1,3.346014321E-1,-6.497315168E-1,-3.825543448E-2
1.562354370E1,4.005748928E-1,-6.136904955E-1,-1.603521290E-3
1.563354400E1,4.305072725E-1,-5.501605272E-1,4.909829423E-2
1.564354336E1,4.152356386E-1,-5.183955431E-1,7.780896127E-2
1.565354269E1,3.743076921E-1,-4.841870666E-1,6.192646548E-2
1.566354176E1,3.229950070E-1,-4.237114191E-1,2.099849284E-2
1.567354176E1,2.533563673E-1,-3.351359367E-1,-1.198823005E-2
1.568354113E1,1.562287807E-1,-2.471713424E-1,1.977676153E-2
1.569354113E1,1.244637966E-1,-2.984840274E-1,5.276348442E-2
1.570354043E1,1.348485053E-1,-4.090506434E-1,5.642867833E-2
1.571354049E1,1.861611903E-1,-5.464953184E-1,2.893974073E-2
1.572353979E1,2.551889420E-1,-6.759987473E-1,-1.198823005E-2
1.573353979E1,3.211624026E-1,-7.639633417E-1,-3.703370690E-2
1.574353976E1,3.706424832E-1,-8.183303475E-1,-5.413793400E-2
1.575353972E1,3.932445049E-1,-8.207738400E-1,-6.024658307E-2
1.576353976E1,3.926336467E-1,-7.651850581E-1,-4.864014685E-2
1.577353969E1,3.486513495E-1,-5.764276981E-1,-1.259909570E-2
1.578353966E1,3.046690524E-1,-4.145484269E-1,3.077233583E-2
1.579353966E1,2.454151064E-1,-2.514474094E-1,6.925684959E-2
1.580353969E1,1.879937798E-1,-1.091158018E-1,7.964155823E-2
1.581353906E1,1.507309973E-1,2.290744742E-4,5.215261877E-2
1.582353899E1,1.324050426E-1,9.308059514E-2,1.672243699E-2
1.583353902E1,1.299615800E-1,1.382846236E-1,1.000291854E-2
1.584353905E1,1.379028261E-1,1.364520192E-1,3.810271993E-2
1.585353902E1,1.385136992E-1,8.513934165E-2,8.758280426E-2
1.586353902E1,1.299615800E-1,-1.443169173E-2,1.303433776E-1
1.587353902E1,1.324050426E-1,-4.436408728E-2,1.089630872E-1
1.588353902E1,1.281289905E-1,-5.169447139E-2,8.636107296E-2
1.589353905E1,1.159116775E-1,-3.642284125E-2,6.803511828E-2
1.590353902E1,9.941831976E-2,-1.565342210E-2,6.498079002E-2
1.591353902E1,8.170322329E-2,1.061378326E-2,5.642867833E-2
1.592353962E1,5.849034712E-2,3.871358559E-2,4.604396969E-2
1.593353928E1,2.916881628E-2,6.436992437E-2,3.749185428E-2
1.594353992E1,-6.872233935E-3,8.025242388E-2,3.688098863E-2
1.595354058E1,-7.223481685E-2,6.009386852E-2,4.115704447E-2
1.596354148E1,-1.058324054E-1,6.337726954E-3,3.260493279E-2
1.597354148E1,-1.149953827E-1,-6.085744873E-2,1.450804994E-3
1.598354212E1,-9.239336848E-2,-1.042288840E-1,-2.664899640E-2
1.599354215E1,-6.001751125E-2,-1.274417639E-1,-2.176207490E-2
1.600354285E1,-4.718934000E-2,-1.445459872E-1,1.488984004E-2
1.601354278E1,-5.451972410E-2,-1.610393524E-1,5.215261877E-2
1.602354345E1,-6.734789163E-2,-1.537089646E-1,5.398521572E-2
1.603354345E1,-6.979135424E-2,-1.066723466E-1,2.771801129E-2
1.604354348E1,-3.741549700E-2,-4.046982154E-3,4.505131394E-3
1.605354352E1,-7.483099122E-3,5.215261877E-2,2.466368489E-2
1.606354348E1,1.939497143E-2,7.353290170E-2,5.093089119E-2
1.607354351E1,3.039054573E-2,5.215261877E-2,5.826127157E-2
1.608354355E1,2.122756653E-2,2.672535367E-3,2.955060638E-2
1.609354355E1,-7.483099122E-3,-3.459024429E-2,-1.809688285E-2
1.610354351E1,-5.085453019E-2,-5.047274008E-2,-4.375322163E-2
1.611354421E1,-1.070541367E-1,-6.330090761E-2,-3.764457256E-2
1.612354425E1,-1.968513280E-1,-7.124216110E-2,-3.153591976E-2
1.613354418E1,-1.241583601E-1,5.703954399E-2,-6.818783283E-2
1.614354414E1,4.077525437E-2,1.358411610E-1,-7.429648191E-2
1.615354418E1,2.038762718E-1,1.676061451E-1,-5.291620269E-2
1.616354414E1,3.370448947E-1,1.498910636E-1,-5.963572115E-2
1.617354414E1,4.042400718E-1,6.253732741E-2,-9.017898142E-2
1.618354411E1,3.779728711E-1,-2.725986205E-2,-1.115592644E-1
1.619354411E1,2.643519342E-1,-9.689849615E-2,-9.812022746E-2
1.620354414E1,1.122464910E-1,-1.017854214E-1,-4.314235970E-2
1.621354411E1,-3.817907767E-3,1.794416644E-2,8.636107296E-2
1.622354408E1,-8.689557761E-2,2.134210467E-1,1.694387496E-1
1.623354408E1,-9.239336848E-2,3.068834245E-1,1.773799956E-1
1.624354414E1,-9.605856240E-2,3.520874679E-1,1.706604809E-1
1.625354417E1,-1.174388453E-1,3.905719519E-1,1.450041384E-1
1.626354414E1,-1.571450830E-1,4.223369658E-1,1.004109755E-1
1.627354414E1,-2.231185287E-1,4.632649422E-1,6.070473418E-2
1.628354417E1,-3.092505336E-1,5.243514776E-1,4.970915988E-2
1.629354414E1,-4.039346576E-1,5.878814459E-1,5.398521572E-2
1.630354414E1,-4.876231849E-1,6.300311685E-1,6.131559983E-2
1.631354414E1,-5.462662578E-1,6.819546819E-1,3.871358559E-2
1.632354417E1,-5.401576161E-1,7.100545168E-1,1.305724494E-2
1.633354421E1,-5.242751241E-1,7.039458156E-1,-2.237293869E-2
1.634354417E1,-4.973970354E-1,6.941719651E-1,-6.757696718E-2
1.635354414E1,-4.576907754E-1,6.526331306E-1,-1.243874356E-1
1.636354420E1,-4.149302244E-1,6.049856544E-1,-1.671480089E-1
1.637354420E1,-3.795000315E-1,5.335144401E-1,-1.683697402E-1
1.638354417E1,-3.556762934E-1,4.241695404E-1,-1.378264725E-1
1.639354417E1,-3.306308091E-1,2.787836194E-1,-1.078940704E-1
1.640354420E1,-2.713768780E-1,4.543310404E-2,-1.182787865E-1
1.641354414E1,-2.151772827E-1,-5.108360574E-2,-1.274417639E-1
1.642354414E1,-1.522581577E-1,-9.689849615E-2,-1.182787865E-1
1.643354414E1,-1.082758680E-1,-1.030071527E-1,-9.140071273E-2
1.644354417E1,-9.361509979E-2,-8.162686974E-2,-4.986187443E-2
1.645354417E1,-9.483683109E-2,-2.909245715E-2,-1.870774850E-2
1.646354417E1,-9.850201756E-2,3.504839167E-2,-2.054034360E-2
1.647354423E1,-9.117163718E-2,9.246972948E-2,-4.619668424E-2
1.648354427E1,-7.895433158E-2,1.278999150E-1,-6.574437022E-2
1.649354423E1,-8.628471941E-2,9.796751291E-2,-7.307475805E-2
1.650354420E1,-1.058324054E-1,3.810271993E-2,-8.468119800E-2
1.651354420E1,-1.296561509E-1,-5.879578181E-3,-9.567677230E-2
1.652354420E1,-1.547016203E-1,-2.298380435E-2,-9.017898142E-2
1.653354423E1,-1.828014255E-1,-3.092505224E-2,-6.330090761E-2
1.654354416E1,-2.188424766E-1,-4.253149405E-2,-4.192062840E-2
1.655354416E1,-2.463314086E-1,-3.520110995E-2,-4.558581859E-2
1.656354420E1,-2.377792895E-1,2.290744742E-4,-5.535966158E-2
1.657354416E1,-1.950187236E-1,6.925684959E-2,-5.841398984E-2
1.658354416E1,-9.239336848E-2,1.523345262E-1,-2.481640130E-2
1.659354416E1,-3.313944116E-2,1.944842190E-1,8.170322515E-3
1.660354416E1,6.566801574E-3,2.073123902E-1,3.993531689E-2
1.661354420E1,8.399397135E-3,1.981494129E-1,4.543310404E-2
1.662354350E1,-2.458732575E-2,1.657735556E-1,2.588541433E-2
1.663354280E1,-6.612616032E-2,1.413389444E-1,2.290744742E-4
1.664354193E1,-1.003346145E-1,1.224021241E-1,-2.420553565E-2
1.665354130E1,-1.229366288E-1,1.077413559E-1,-4.008803144E-2
1.666354036E1,-1.430951804E-1,7.903069258E-2,-4.008803144E-2
1.667353946E1,-1.754710376E-1,5.520694703E-2,-2.115120925E-2
1.668353883E1,-1.974621862E-1,7.964155823E-2,1.183551457E-2
1.669353816E1,-1.925752759E-1,1.254564524E-1,1.305724494E-2
1.670353813E1,-1.724167168E-1,1.621083617E-1,5.115996581E-3
1.671353813E1,-1.522581577E-1,1.975385547E-1,1.733330078E-2
1.672353816E1,-1.424843222E-1,2.195297033E-1,2.649627998E-2
1.673353823E1,-1.430951804E-1,2.464077622E-1,3.260493279E-2
1.674353823E1,-1.418734491E-1,2.629011273E-1,2.283108793E-2
1.675353823E1,-1.394299865E-1,2.409099787E-1,3.894265974E-3
1.676353829E1,-1.351539344E-1,1.358411610E-1,-3.153591976E-2
