"Time (s)","Linear Acceleration x (m/s^2)","Linear Acceleration y (m/s^2)","Linear Acceleration z (m/s^2)"
3.533893500E-2,3.130002737E0,-1.318391895E1,-1.035078049E1
4.533893500E-2,3.149206400E0,-1.317502594E1,-1.035179043E1
5.533893500E-2,3.168390989E0,-1.316612530E1,-1.035275459E1
6.533893500E-2,3.187586546E0,-1.315722275E1,-1.035367298E1
7.533893500E-2,3.206774473E0,-1.314828396E1,-1.035454941E1
8.533593500E-2,3.225950718E0,-1.313933182E1,-1.035538006E1
9.533593500E-2,3.214015007E0,-1.312529850E1,-1.035653114E1
1.053359350E-1,3.202996254E0,-1.310422325E1,-1.035822868E1
1.153342200E-1,3.194281101E0,-1.307863140E1,-1.036023808E1
1.253315950E-1,3.190837860E0,-1.305066013E1,-1.036238670E1
1.353315950E-1,3.193868876E0,-1.302687836E1,-1.036418533E1
1.453315950E-1,3.200850964E0,-1.300895119E1,-1.036552620E1
1.553315950E-1,3.209365129E0,-1.299559116E1,-1.036651516E1
1.653315950E-1,3.215264797E0,-1.298398304E1,-1.036734772E1
1.753315950E-1,3.215450287E0,-1.297075367E1,-1.036825562E1
1.853315950E-1,3.207816839E0,-1.295276833E1,-1.036943150E1
1.953315950E-1,3.189329386E0,-1.292988682E1,-1.037082100E1
2.053315950E-1,3.158226252E0,-1.290439415E1,-1.037217236E1
2.153315950E-1,3.115888119E0,-1.287962055E1,-1.037316990E1
2.253315950E-1,3.068455935E0,-1.285934734E1,-1.037357616E1
2.353315950E-1,3.024800777E0,-1.284278774E1,-1.037359524E1
2.453315950E-1,2.990497828E0,-1.282992744E1,-1.037344551E1
2.553315950E-1,-2.763513029E-1,7.443982124E0,-4.485644817E0
2.653315950E-1,-3.391185403E-1,7.479085445E0,-4.411389828E0
2.753315950E-1,-3.533706665E-1,7.560105324E0,-4.442527771E0
2.853315950E-1,-3.663080633E-1,7.659112930E0,-4.540678024E0
2.953315950E-1,-3.887671232E-1,7.768986702E0,-4.739370823E0
3.053315950E-1,-3.814228177E-1,7.778107643E0,-4.957613945E0
3.153315950E-1,-3.076077402E-1,7.689105034E0,-5.185448647E0
3.253315950E-1,-4.206988811E-1,7.576464653E0,-5.293262005E0
3.353315950E-1,-5.838339925E-1,7.520320892E0,-5.227711678E0
3.453315950E-1,-7.183111906E-1,7.554440022E0,-4.758385658E0
3.553315950E-1,-4.766965210E-1,7.678501606E0,-4.168611526E0
3.653315950E-1,9.912252426E-5,8.026742935E0,-3.975327015E0
3.753315950E-1,7.326530814E-1,8.535299301E0,-4.343870640E0
3.853319950E-1,1.389009714E0,9.159647942E0,-5.168992996E0
3.953319950E-1,1.765449762E0,9.598211288E0,-6.031036377E0
4.053319950E-1,1.857034445E0,9.891490936E0,-6.664674759E0
4.153323950E-1,1.611526847E0,9.965782166E0,-7.195288181E0
4.253330950E-1,1.241637826E0,9.818679810E0,-7.321164608E0
4.353330950E-1,9.797011614E-1,9.547819138E0,-6.818859577E0
4.453330950E-1,8.940712214E-1,9.365576744E0,-5.835695744E0
4.553330950E-1,9.034955502E-1,9.157829285E0,-4.713055134E0
4.653330950E-1,1.020043015E0,9.042658806E0,-3.630033493E0
4.753330950E-1,1.047077537E0,9.150269508E0,-2.878436565E0
4.853330950E-1,5.598633289E-1,9.299819946E0,-2.706027508E0
4.953330950E-1,-7.054435611E-1,9.262217522E0,-3.174466610E0
5.053330950E-1,-1.626115799E0,8.410728455E0,-3.698278904E0
5.153330950E-1,-1.956953168E0,6.922119617E0,-4.751522541E0
5.253330950E-1,-3.070866346E0,6.523870945E0,-5.482575893E0
5.353330950E-1,-4.954313278E0,7.179236889E0,-5.929081440E0
5.453331280E-1,-7.193046570E0,8.085443497E0,-6.201114655E0
5.553331280E-1,-8.706459999E0,8.212593079E0,-6.185585022E0
5.653331280E-1,-9.359075546E0,7.666092873E0,-5.971145630E0
5.753331280E-1,-8.875245094E0,6.819998264E0,-4.974533081E0
5.853331280E-1,-8.458103180E0,6.109417439E0,-4.072670460E0
5.953331280E-1,-8.749468803E0,5.562354565E0,-2.751339436E0
6.053331280E-1,-9.252407074E0,4.948025703E0,-1.845819473E0
6.153331280E-1,-9.553814888E0,4.130159378E0,-1.258971691E0
6.253331280E-1,-9.740833282E0,3.323305845E0,-7.785506248E-1
6.353331280E-1,-1.007044697E1,3.010456800E0,-3.491907120E-1
6.453331280E-1,-9.355485916E0,1.852344513E0,-4.874339104E-1
6.553331280E-1,-8.859627724E0,1.090785027E0,-5.199093819E-1
6.653331280E-1,-8.540820122E0,2.363102436E-1,-1.113631487E0
6.753324280E-1,-7.672769547E0,-5.472755432E-1,-1.776795626E0
6.853315610E-1,-7.709537506E0,-6.792376041E-1,-1.644711256E0
6.953310610E-1,-6.380743027E0,-3.253800869E-1,-5.132551193E-1
7.053305610E-1,-5.332192421E0,1.541233063E-1,-2.062883377E-1
7.153300610E-1,-4.008006096E0,3.613195419E-1,-5.125541687E-1
7.253295940E-1,-2.197115421E0,3.790903091E-2,-1.499347687E0
7.353290940E-1,-4.672131538E-1,-4.978752136E-1,-3.659236431E0
7.453290600E-1,6.508975029E-1,-7.373404503E-1,-5.386191368E0
7.553290260E-1,1.699789047E0,-6.522845030E-1,-6.619282246E0
7.653290590E-1,1.685039997E0,-4.428323507E-1,-6.679673195E0
7.753290590E-1,3.920528889E0,-6.399838924E-1,-7.217047691E0
7.853290250E-1,4.261137962E0,-2.585179806E-1,-7.003052711E0
7.953290580E-1,4.402647018E0,2.325129509E-1,-6.627272606E0
8.053290580E-1,4.484671116E0,6.573270559E-1,-6.293857098E0
8.153290240E-1,4.636157036E0,9.168180823E-1,-5.911364555E0
8.253289900E-1,5.109225273E0,1.069615602E0,-5.476315498E0
8.353289560E-1,5.797725677E0,1.201496243E0,-5.078635693E0
8.453289220E-1,6.348964691E0,1.410723448E0,-4.841511250E0
8.553289220E-1,6.794829369E0,1.621090651E0,-4.657833576E0
8.653288880E-1,7.432357311E0,1.752509594E0,-4.377419472E0
8.753288880E-1,8.648810387E0,1.635193348E0,-3.672950268E0
8.853288880E-1,9.699836731E0,1.456227899E0,-3.111644268E0
8.953288540E-1,1.037976933E1,1.333796024E0,-2.871510029E0
9.053288540E-1,1.083342648E1,1.265536070E0,-2.844583511E0
9.153288200E-1,1.105407429E1,1.149058223E0,-3.071838856E0
9.253288200E-1,1.085839653E1,1.076859593E0,-3.577288151E0
9.353288200E-1,1.039025021E1,1.105126619E0,-4.055417061E0
9.453287860E-1,8.980330467E0,1.299161792E0,-4.494377136E0
9.553287860E-1,8.121806145E0,1.300848484E0,-4.259671211E0
9.653287860E-1,1.043699265E1,1.461896896E-1,4.674501419E-1
9.753287860E-1,1.103539371E1,-8.401138783E-1,1.115051270E0
9.853296520E-1,1.130771446E1,-1.894440413E0,-4.942760468E-1
9.953294520E-1,1.249022961E1,-2.412695885E0,-3.278064728E-1
1.005329285E0,1.303793144E1,-3.945113182E0,-1.734477520E0
1.015330751E0,1.331179237E1,-2.310263157E0,1.252733517E1
1.025330517E0,1.166533756E1,-3.014800787E0,1.142583561E1
1.035331017E0,1.469624138E1,-1.054684162E0,1.649985886E1
1.045330383E0,1.204753208E1,-1.199615121E0,1.169143581E1
1.131941423E0,9.335503578E0,-6.320280552E0,-5.435755253E0
1.141942423E0,9.331686020E0,-6.318572521E0,-5.437021732E0
1.150922423E0,9.327865601E0,-6.316878319E0,-5.438281059E0
1.160416423E0,9.330061913E0,-6.322450161E0,-5.433454037E0
1.170083089E0,9.336343765E0,-6.337035179E0,-5.420815468E0
1.179833089E0,9.342885971E0,-6.351246834E0,-5.408471107E0
1.189632889E0,9.350104332E0,-6.364908695E0,-5.396623135E0
1.199466055E0,9.358943939E0,-6.377860546E0,-5.385462761E0
1.209323055E0,9.367352486E0,-6.389703751E0,-5.375241280E0
1.219198180E0,9.373164177E0,-6.400740147E0,-5.365540981E0
1.229087068E0,9.375024796E0,-6.411405087E0,-5.355909824E0
1.238986968E0,9.374402046E0,-6.421676636E0,-5.346454620E0
1.248895968E0,9.374717712E0,-6.432288647E0,-5.336716652E0
1.258812634E0,9.376686096E0,-6.442564487E0,-5.327365398E0
1.268735634E0,9.380940437E0,-6.452159405E0,-5.318758011E0
1.278664134E0,9.386903763E0,-6.460895538E0,-5.311021328E0
1.288597400E0,9.394227982E0,-6.469022751E0,-5.303915024E0
1.298534900E0,9.402021408E0,-6.477019787E0,-5.296930313E0
1.308476076E0,9.407954216E0,-6.485066891E0,-5.289768219E0
1.318420464E0,9.410584450E0,-6.493210793E0,-5.282301903E0
1.328367885E0,9.411586761E0,-6.502019405E0,-5.274104595E0
1.338317885E0,9.413566589E0,-6.512331486E0,-5.264527321E0
1.348270218E0,-1.019590855E0,1.092751503E0,-2.062419891E0
1.358224763E0,-1.179083586E0,1.446127892E0,-2.160377502E0
1.368181241E0,-1.051821232E0,1.654529572E0,-2.130008698E0
1.378139574E0,-1.049225688E0,1.646181583E0,-2.122212887E0
1.388099574E0,-5.600945354E-1,1.200650692E0,-1.899865627E0
1.398061074E0,-5.773503780E-1,9.446139336E-1,-1.888597012E0
1.408024036E0,-8.561501503E-1,1.124229908E0,-1.889293671E0
1.417988321E0,-7.007604837E-1,8.270540237E-1,-1.599304199E0
1.427953838E0,-6.828848720E-1,1.011353493E0,-1.235150814E0
1.437920471E0,-3.248647749E-1,6.851034164E-1,-8.376340866E-1
1.447921104E0,-2.105703950E-2,2.277259827E-1,-5.461134911E-1
1.457921504E0,1.201927662E-4,2.525711060E-2,-4.294462204E-1
1.467921504E0,4.171073437E-2,-1.492500305E-2,-3.180642128E-1
1.477921470E0,1.138107777E-1,-6.678676605E-2,-1.982374191E-1
1.487921503E0,8.427879214E-2,-1.704888344E-1,-9.170961380E-2
1.497921536E0,-8.815360069E-2,-9.795284271E-2,-1.226806641E-1
1.507921536E0,-2.891123295E-1,2.709054947E-1,-2.519969940E-1
1.517921469E0,-1.865662634E-1,5.148773193E-1,-2.718319893E-1
1.527921435E0,1.087175608E-1,2.999181747E-1,-2.078542709E-1
1.537921468E0,3.965322971E-1,-2.148141861E-1,-1.648588181E-1
1.547921468E0,2.943200469E-1,-4.702186584E-1,-1.494779587E-1
1.557921434E0,-4.211029410E-2,-3.178052902E-1,-3.244247437E-1
1.567921467E0,-2.870891988E-1,6.220912933E-2,-2.912602425E-1
1.577921500E0,-2.588552237E-1,4.043254852E-1,-2.538957596E-1
1.587921500E0,-1.808109879E-1,4.805850983E-1,-1.805133820E-1
1.597921466E0,-7.002857327E-2,2.862653732E-1,-1.979284286E-1
1.607921499E0,-2.551478148E-2,1.118965149E-1,-2.856183052E-1
1.617920865E0,3.737249970E-2,1.702213287E-2,-3.402614594E-1
1.627920131E0,9.726649523E-2,-1.684541702E-1,-2.756338120E-1
1.637920131E0,1.944413185E-1,-2.955684662E-1,-2.100496292E-1
1.647919497E0,1.035522521E-1,-3.022456169E-1,-2.583456039E-1
1.657918597E0,-2.377792895E-1,1.144676208E-1,-1.890296936E-1
1.667917930E0,-2.635623217E-1,5.829057693E-1,3.714990616E-2
1.677917230E0,1.165511608E-1,4.590034485E-1,2.765564919E-1
1.687917096E0,-1.856279969E-1,-5.550823212E-1,-1.434817314E-1
1.697917162E0,-1.949387789E-1,-5.549707413E-1,-1.442956924E-1
1.707917162E0,-2.042303085E-1,-5.547304153E-1,-1.452908516E-1
1.717916928E0,-2.134824693E-1,-5.544614792E-1,-1.462979317E-1
1.727916928E0,-2.225523591E-1,-5.542364120E-1,-1.472148895E-1
1.737916928E0,1.207055002E-1,6.380405426E-1,2.706193924E-2
1.747916928E0,3.345866501E-1,3.486461639E-1,1.896057129E-1
1.757916894E0,2.281812876E-1,3.075141907E-1,6.121397018E-2
1.767916894E0,5.599856377E-2,3.202371597E-1,-6.045866013E-2
1.777916927E0,6.143611670E-2,3.185300827E-1,-5.749511719E-2
1.787916893E0,-3.231287003E-3,1.894760132E-1,-1.630558968E-1
1.797916893E0,-1.540683806E-1,3.619432449E-1,1.875004768E-1
1.807916926E0,-1.105960310E-1,6.319084167E-1,3.868241310E-1
1.817916926E0,-1.137539148E-1,6.373281479E-1,3.783493042E-1
1.827916959E0,2.580286562E-1,3.945093155E-1,3.736195564E-1
1.837916925E0,2.978896201E-1,-1.324987411E-1,3.991603851E-1
1.847916958E0,7.106658816E-2,-3.745708466E-1,2.238178253E-1
1.857916991E0,7.867550850E-2,-3.690481186E-1,2.159628868E-1
1.867916957E0,-1.098740995E-1,6.542034149E-1,-2.410368919E-1
1.877916957E0,1.676443070E-1,6.478357315E-1,-2.227911949E-1
1.887916990E0,2.091333270E-1,1.684551239E-1,-1.643056870E-1
1.897916990E0,2.120009065E-1,1.668863297E-1,-1.617431641E-1
1.907916923E0,-3.532718420E-1,7.371330261E-2,-2.803907394E-1
1.917917556E0,-3.542831242E-1,7.186508179E-2,-2.776694298E-1
1.927918289E0,1.594394743E-1,1.070556641E-1,1.108756065E-1
1.937918255E0,1.511158645E-1,1.074142456E-1,1.097884178E-1
1.947918888E0,-1.995389462E-1,-3.517370224E-1,-2.385792732E-1
1.957919788E0,-5.328253508E-1,2.462482452E-2,-4.907031059E-1
1.967920488E0,-2.659384310E-1,3.247680664E-1,-4.606685638E-1
1.977921154E0,2.418744862E-1,4.422950745E-2,-2.120809555E-1
1.987921254E0,4.340036511E-1,-6.040034294E-1,-5.359458923E-2
1.997921187E0,5.446636677E-2,-8.215270042E-1,-1.123828888E-1
2.007921187E0,-4.015759230E-1,-3.773231506E-1,-2.214655876E-1
2.017921387E0,-3.953001201E-1,-3.776760101E-1,-2.205038071E-1
2.027921353E0,-2.970540226E-1,8.442888260E-1,-5.547380447E-2
2.037921386E0,1.108239591E-1,7.343158722E-1,7.312297821E-3
2.047921386E0,1.746401638E-1,1.860208511E-1,-2.311420441E-2
2.057921386E0,9.133896232E-2,-1.412153244E-1,-1.429028511E-1
2.067921352E0,1.436854154E-1,-2.755503654E-1,-1.543436050E-1
2.077921385E0,2.983900905E-1,-3.604464531E-1,-3.630971909E-2
2.087921418E0,2.474624217E-1,-3.198561668E-1,7.544326782E-2
2.097921384E0,3.362390399E-2,-5.422782898E-2,6.513786316E-2
2.107921417E0,-1.453057826E-1,2.823944092E-1,4.403924942E-2
2.117921450E0,-4.925039411E-2,3.188533783E-1,7.325172424E-3
2.127921416E0,9.776499867E-2,6.294250488E-2,-1.969003677E-2
2.137921416E0,1.730988473E-1,-2.454690933E-1,-1.261172295E-1
2.147921382E0,1.474506408E-1,-5.178523064E-1,-2.852535248E-1
2.157921382E0,-4.067501426E-2,-5.426878929E-1,-4.423384666E-1
2.167921415E0,-2.462126613E-1,-1.720986366E-1,-5.377731323E-1
2.177921381E0,-2.446267307E-1,-1.754288673E-1,-5.326533318E-1
2.187921381E0,-9.118774533E-2,2.794733047E-1,-3.603892326E-1
2.197921414E0,6.703993678E-2,1.291894913E-1,-1.540822983E-1
2.207921414E0,1.071507335E-1,-2.098746300E-1,-6.358909607E-2
2.217921447E0,1.167455316E-2,-3.892517090E-1,-5.393981934E-2
2.227921380E0,-1.800062060E-1,-3.173131943E-1,-4.676246643E-2
2.237921413E0,-2.232630253E-1,-1.073770523E-1,4.409027100E-2
2.247921446E0,-9.419080615E-2,7.929992676E-2,1.530337334E-1
2.257921412E0,7.991015911E-3,1.632032394E-1,2.469506264E-1
2.267921378E0,-7.055288553E-2,2.563285828E-1,2.026410103E-1
2.277921378E0,8.942055702E-2,2.480792999E-1,1.862125397E-1
2.287921411E0,9.167569876E-2,2.487602234E-1,1.853380203E-1
2.297921411E0,4.473703206E-1,-6.249971390E-1,4.415655136E-2
2.307921377E0,1.119511127E-1,-5.030341148E-1,-2.066807747E-1
2.317921410E0,-8.817324042E-2,3.894901276E-2,-3.763365746E-1
2.327921443E0,8.350074291E-3,5.550680161E-1,-4.283084869E-1
2.337921409E0,7.208615541E-3,5.514278412E-1,-4.228200912E-1
2.347921409E0,3.727416694E-1,2.603540421E-1,-1.612596512E-1
2.357921475E0,2.751488388E-1,3.209781647E-2,-8.499383926E-2
2.367921508E0,2.054786384E-1,-1.421823502E-1,-7.765150070E-2
2.377921441E0,2.137917131E-1,-2.190322876E-1,-8.473110199E-2
2.387921407E0,2.134239823E-1,-2.656383514E-1,-3.184270859E-2
2.397921440E0,1.545106024E-1,-1.936540604E-1,-4.741191864E-3
2.407921373E0,1.324698329E-2,1.468534470E-1,3.371238708E-4
2.417921339E0,3.552213311E-2,5.729703903E-1,-5.605220795E-3
2.427921339E0,3.538751602E-2,5.745763779E-1,-8.088588715E-3
2.437921372E0,4.569113851E-1,3.723659515E-1,3.560767174E-1
2.447921405E0,2.364661843E-1,2.433204651E-2,3.655323982E-1
2.457921371E0,2.358102053E-1,2.600193024E-2,3.629341125E-1
2.467921404E0,-2.530343533E-1,5.012874603E-1,2.678146362E-1
2.477921437E0,-1.664857566E-1,8.658065796E-1,3.722715378E-1
2.487921437E0,1.931637526E-2,1.072045326E0,5.630469322E-1
2.497921403E0,1.452666521E-2,1.072863579E0,5.614657402E-1
2.507921403E0,3.370964527E-1,5.096254349E-1,5.178070068E-1
2.517921403E0,1.587393135E-1,2.036561966E-1,3.792471886E-1
2.527921436E0,1.305003315E-1,1.986598969E-1,4.058156013E-1
2.537921402E0,1.264457405E-1,2.742614746E-1,4.180283546E-1
2.547921402E0,1.316305995E-2,4.871673584E-1,4.721565247E-1
2.557921435E0,4.844284058E-2,5.062246323E-1,4.711127281E-1
2.567921435E0,1.217434704E-1,2.059574127E-1,4.020175934E-1
2.577921468E0,1.328057051E-1,-4.531478882E-2,2.367177010E-1
2.587921434E0,8.659318089E-2,-2.430782318E-1,-4.593658447E-2
2.597921467E0,6.186991930E-2,-2.729840279E-1,-2.296190262E-1
2.607921500E0,-1.320731640E-2,-2.655258179E-1,-3.424491882E-1
2.617921100E0,-7.620468736E-2,-2.324266434E-1,-4.063491821E-1
2.627920400E0,-9.721812606E-2,-1.637139320E-1,-5.129756927E-1
2.637920433E0,-1.655075252E-1,-1.831626892E-2,-6.033678055E-1
2.647919799E0,1.961764693E-2,-9.074401855E-2,-4.586215019E-1
2.657918865E0,2.693224549E-1,-5.645909309E-1,-3.680629730E-1
2.667917965E0,2.051866204E-1,-1.082210064E0,-4.093909264E-1
2.677918031E0,1.705139875E-3,-1.179384708E0,-4.982662201E-1
2.687917364E0,-2.872329652E-1,-8.640170097E-1,-4.922561646E-1
2.697916664E0,-2.741416693E-1,-4.283819199E-1,-4.223918915E-1
2.707916664E0,-1.019994318E-1,-5.002784729E-2,-2.068424225E-1
2.717916730E0,-1.009621322E-1,-4.520702362E-2,-2.139496803E-1
2.727916796E0,2.904278040E-1,-3.978877068E-1,-2.271027565E-1
2.737916762E0,1.380831003E-1,-5.766463280E-1,-4.231586456E-1
2.747916728E0,1.452527940E-1,-5.740094185E-1,-4.265627861E-1
2.757916761E0,-3.327828646E-1,-2.548990250E-1,-5.405006409E-1
2.767916694E0,-3.006086349E-1,4.656314850E-2,-3.118586540E-1
2.777916660E0,-1.534582376E-1,2.608890533E-1,-4.833650589E-2
2.787916626E0,-1.699100435E-1,5.154333115E-1,3.897118568E-1
2.797916659E0,-7.190907001E-2,5.678882599E-1,5.314426422E-1
2.807916692E0,-7.502231002E-2,4.442176819E-1,7.411313057E-1
2.817916658E0,-6.585997343E-2,4.591236115E-1,7.202534676E-1
2.827916691E0,-2.979862690E-1,3.195123672E-1,7.743730545E-1
2.837916724E0,-2.972855270E-1,3.431844711E-1,5.646390915E-1
2.847916690E0,-3.902277052E-1,4.967699051E-1,6.799640656E-1
2.857916690E0,-4.024074078E-1,6.607031822E-1,8.232545853E-1
2.867916690E0,-2.367776632E-1,6.627898216E-1,8.179688454E-1
2.877916690E0,-3.615176678E-2,6.194772720E-1,6.890788078E-1
2.887916756E0,-5.700409412E-2,5.787439346E-1,4.650964737E-1
2.897916722E0,-4.713481665E-2,5.890588760E-1,4.517250061E-1
2.907916722E0,-1.200830340E-1,1.772451401E-1,1.336097717E-2
2.917917155E0,-2.298836112E-1,2.492184639E-1,-2.278232574E-2
2.927917855E0,-1.211800575E-1,4.341669083E-1,3.534460068E-2
2.937917821E0,1.787036657E-2,3.223867416E-1,1.779518127E-1
2.947918454E0,-5.763912201E-2,3.236150742E-2,3.231706619E-1
2.957919354E0,-2.667483687E-1,-5.882263184E-3,2.387838364E-1
2.967920254E0,-4.128470421E-1,1.345500946E-1,1.456170082E-1
2.977920187E0,-3.368353844E-1,2.007622719E-1,2.049083710E-1
2.987920887E0,-7.985913754E-2,2.364783287E-1,3.187294006E-1
2.997921587E0,-4.101818800E-2,3.223876953E-1,3.828196526E-1
3.007921587E0,-1.770790219E-1,4.987282753E-1,4.049973488E-1
3.017921520E0,-2.555214167E-1,5.353293419E-1,4.213528633E-1
3.027921453E0,-1.660224199E-1,3.885965347E-1,4.199500084E-1
3.037921486E0,-1.026987433E-1,7.713699341E-2,5.232348442E-1
3.047921486E0,-2.677222490E-1,-2.195839882E-1,6.452217102E-1
3.057921452E0,-2.688314915E-1,-2.133703232E-1,6.369810104E-1
3.067921485E0,-6.300410628E-1,-1.423439980E-1,5.138988495E-1
3.077921518E0,-6.353756785E-1,1.602363586E-2,4.255328178E-1
3.087921518E0,-6.448794603E-1,1.832342148E-2,4.213404655E-1
3.097921484E0,-3.148455024E-1,-4.165029526E-2,3.261570930E-1
3.107921517E0,2.130513191E-1,-9.229073524E-1,-2.451653481E-1
3.117921550E0,2.076536417E-1,-9.206690788E-1,-2.487254143E-1
3.127921483E0,-1.444637179E-1,-6.904978752E-1,-8.367476463E-1
3.137921449E0,-1.452840567E-1,-6.861333847E-1,-8.424768448E-1
3.153544652E0,-9.655702114E-2,-8.363866806E-2,-3.149275780E-1
3.163544618E0,-1.520087719E-1,-3.229713440E-2,-7.695865631E-2
3.173544618E0,-2.731488347E-1,-5.232334137E-3,6.349468231E-2
3.183544584E0,-2.687689662E-1,3.294944763E-3,5.314064026E-2
3.193544550E0,-1.355688572E-1,-3.180761337E-1,2.363395691E-2
3.203544583E0,-1.343079805E-1,-3.125777245E-1,1.680850983E-2
3.213544549E0,-1.226711869E-1,-4.209423065E-1,3.752088547E-2
3.223544515E0,-1.290216446E-1,-4.184675217E-1,3.362274170E-2
3.233544481E0,-1.834396124E-1,-1.090321541E-1,1.743984222E-2
3.243544514E0,1.157808304E-1,2.377495766E-1,1.559920311E-1
3.253544547E0,3.110122383E-1,-1.196432114E-2,3.266410828E-1
3.263544513E0,3.022256196E-1,-4.107246399E-1,3.454613686E-1
3.273544546E0,-8.895754814E-3,-6.525974274E-1,1.556701660E-1
3.283544579E0,-2.445608974E-1,-5.599241257E-1,-6.377458572E-2
3.293544545E0,-2.453643084E-1,-2.683196068E-1,-2.158746719E-1
3.303544511E0,-2.641329765E-1,-2.863459587E-1,-1.945266724E-1
3.313544511E0,1.180473566E-1,1.988420486E-1,-4.176807404E-2
3.323544544E0,1.019654870E-1,1.819968224E-1,-2.134466171E-2
3.333544577E0,3.754403591E-1,-4.533386230E-2,-1.181163788E-1
3.343544543E0,3.637986183E-1,-6.227636337E-2,-9.680557251E-2
3.353544576E0,3.532129526E-2,-2.066059113E-1,-3.091764450E-1
3.363544609E0,-1.442313790E-1,4.344987869E-2,-2.331609726E-1
3.373544575E0,-1.265005469E-1,3.358659744E-1,-9.385967255E-2
3.383544541E0,-1.416507959E-1,3.161091805E-1,-6.841182709E-2
3.393544574E0,-6.365144253E-2,4.843292236E-1,3.024959564E-2
3.403544607E0,1.034412086E-1,3.641147614E-1,2.504253387E-2
3.413544540E0,2.281494141E-1,1.350975037E-2,-9.307861328E-4
3.423544540E0,1.920959651E-1,-8.559703827E-3,2.724170685E-2
3.433544573E0,-3.891035914E-2,2.313232422E-2,-1.709346771E-1
3.443544573E0,-2.127472162E-1,1.401185989E-1,-2.200851440E-1
3.453544539E0,-7.982984185E-2,5.050563812E-2,-2.784657478E-1
3.463544539E0,-1.250125766E-1,3.430175781E-2,-2.572598457E-1
3.473544605E0,-6.349411607E-2,-1.046519279E-1,-3.146662712E-1
3.483544638E0,-1.464711130E-1,-4.235630035E-1,-3.313212395E-1
3.493544604E0,-3.920029998E-1,-4.027142525E-1,-3.267607689E-1
3.503544570E0,-5.138338804E-1,-2.862339020E-1,-2.868676186E-1
3.513544603E0,-4.848661721E-1,-2.644610405E-1,-2.676105499E-2
3.523544569E0,-4.484268725E-1,-2.053408623E-1,1.835098267E-1
3.533544569E0,-4.765065014E-1,-2.089400291E-1,1.887216568E-1
3.543544535E0,-1.309519112E-1,-2.552480698E-1,4.268956184E-1
3.553544535E0,4.927241802E-2,-5.392313004E-1,5.116987228E-1
3.563544568E0,1.975303888E-2,-5.516681671E-1,5.305452347E-1
3.573544501E0,-3.959263563E-1,-7.481989861E-1,4.884099960E-2
3.583544534E0,-7.257376313E-1,-5.923628807E-1,-2.391519547E-1
3.593544567E0,-7.681094408E-1,-4.319162369E-1,-4.894709587E-1
3.603544567E0,-7.772751451E-1,-2.770643234E-1,-4.788126945E-1
3.613544600E0,-5.825439692E-1,-1.930389404E-1,-2.529926300E-1
3.623543900E0,-6.301217675E-1,-2.156639099E-1,-2.149953842E-1
3.633543233E0,1.284676790E-2,-2.164182663E-1,1.226673126E-1
3.643542399E0,2.091184258E-2,-1.262655258E-1,1.069755554E-1
3.653541699E0,-1.351429522E-1,1.723251343E-1,1.109995842E-1
3.663541732E0,-1.711495221E-1,5.287609100E-1,2.322969437E-1
3.673540898E0,6.351315975E-2,8.022680283E-1,3.958063126E-1
3.683540764E0,3.111005425E-1,9.594326019E-1,3.883452415E-1
3.693540730E0,3.742013574E-1,9.726905823E-1,2.404799461E-1
3.703540696E0,4.688397050E-1,7.921571732E-1,6.399726868E-2
3.713540362E0,5.686169267E-1,5.145864487E-1,-6.177330017E-2
3.723539662E0,4.295067191E-1,3.107757568E-1,-1.066579819E-1
3.733539628E0,2.220469117E-1,2.939014435E-1,-1.245880127E-2
3.743539661E0,1.974102259E-1,2.820901871E-1,1.224565506E-2
3.753539727E0,5.037891865E-2,7.320814133E-1,3.087453842E-1
3.763539727E0,1.493743062E-1,7.218294144E-1,3.597793579E-1
3.773539660E0,3.055303097E-1,4.728631973E-1,3.255224228E-1
3.783539626E0,2.898374796E-1,4.657230377E-1,3.411397934E-1
3.793539659E0,1.073210835E-1,-1.446113586E-1,-1.614294052E-1
3.803539659E0,-1.573518515E-1,-5.937767029E-2,-1.781945229E-1
3.813539625E0,-2.300881743E-1,3.244915009E-1,-4.688739777E-3
3.823539691E0,-2.357791066E-1,3.218965530E-1,1.102447510E-3
3.833539724E0,2.506576777E-1,5.972957611E-1,4.043626785E-1
3.843539724E0,4.254188538E-1,2.658576965E-1,3.162217140E-1
3.853539690E0,1.886022687E-1,-1.897869110E-1,1.358404160E-1
3.863539723E0,1.822438240E-1,-1.967325211E-1,1.498312950E-1
3.873539756E0,-2.522318959E-1,-1.377992630E-1,-4.670715332E-2
3.883539689E0,-1.673368216E-1,2.129535675E-1,-6.733894348E-2
3.893539655E0,6.135022640E-2,4.058208466E-1,-1.092004776E-1
3.903539688E0,8.340197802E-2,3.857994080E-1,-1.870598793E-1
3.913539654E0,3.300759792E-1,1.217212677E-1,-4.043545723E-1
3.923540320E0,3.826083541E-1,-1.656312943E-1,-5.322880745E-1
3.933540953E0,2.731406093E-1,-5.067491531E-1,-1.867587328E0
3.943541819E0,3.051863909E-1,-4.297256470E-1,-9.989299774E-1
3.953542519E0,5.901169777E-1,-4.269618988E-1,-4.404778481E-1
3.963542452E0,3.542043567E-1,-3.038177490E-1,-2.150082588E-1
3.973543318E0,4.127997160E-2,-1.296882629E-1,-3.029861450E-1
3.983543451E0,1.530874968E-1,1.139812469E-1,-2.643561363E-1
3.993543484E0,4.660866857E-1,2.929611206E-1,-2.638497353E-1
4.003543517E0,7.444872856E-1,1.142568588E-1,-5.136618614E-1
4.013543850E0,9.925705194E-1,-2.165012360E-1,-3.451600075E-1
4.023544550E0,8.317807913E-1,-2.697219849E-1,-1.205110550E-2
4.033544583E0,2.581089735E-1,-8.171844482E-2,7.168340683E-2
4.043544549E0,-9.396427870E-2,2.123336792E-1,5.423450470E-2
4.053544482E0,1.617596149E-1,2.394886017E-1,-3.056621552E-2
4.063544482E0,2.000117898E-1,2.432832718E-1,-4.388237000E-2
4.073544515E0,6.790468097E-1,1.894092560E-2,3.114237785E-1
4.083544548E0,5.476669073E-1,-1.251239777E-1,2.328739166E-1
4.093544514E0,1.223086119E-1,-1.220874786E-1,-3.280591965E-2
4.103544547E0,-1.242111027E-1,4.588317871E-2,-1.512503624E-1
4.113544580E0,2.061074972E-2,4.266834259E-2,-3.928890228E-1
4.123544513E0,8.264037967E-2,6.074333191E-2,-4.308104515E-1
4.133544479E0,2.190881670E-1,-1.695365906E-1,-2.782502174E-1
4.143544479E0,3.236848116E-2,-3.372735977E-1,-6.765365601E-2
4.153544512E0,-3.761166036E-1,-5.015988350E-1,1.643753052E-2
4.163544445E0,-7.456970215E-1,-5.367159843E-1,-4.498767853E-2
4.173544445E0,-1.075590253E0,-3.379507065E-1,-1.359796524E-2
4.183544511E0,-1.013203621E0,-2.983455658E-1,-7.795095444E-2
4.193544511E0,-8.332359791E-1,4.342937469E-2,3.998188972E-1
4.203544477E0,-5.763843656E-1,7.822895050E-2,5.879449844E-1
4.213544477E0,-3.368737698E-1,-1.152992249E-3,7.968497276E-1
4.223544543E0,-2.818696499E-1,3.390693665E-2,7.456851006E-1
4.233544576E0,-2.262613326E-1,-1.962637901E-1,7.269258499E-1
4.243544542E0,-3.061912656E-1,-2.185907364E-1,6.900949478E-1
4.253544508E0,-4.728898406E-1,-5.754184723E-2,6.426587105E-1
4.263544541E0,-4.126207232E-1,1.335592270E-1,5.077395439E-1
4.273544507E0,-3.262775838E-1,3.211259842E-1,2.515101433E-1
4.283544507E0,-2.352617383E-1,4.315967560E-1,-4.331874847E-2
4.293544473E0,-6.197723746E-2,3.967180252E-1,-1.196813583E-1
4.303544473E0,1.907197535E-1,1.634912491E-1,-3.775262833E-2
4.313544506E0,3.083676994E-1,-1.850728989E-1,1.118159294E-1
4.323544472E0,9.216678143E-2,-2.080426216E-1,1.108245850E-1
4.333544505E0,-3.454435468E-1,2.812776566E-1,6.944131851E-2
4.343544538E0,-3.474469483E-1,2.751979828E-1,7.819557190E-2
4.353544538E0,-2.327050567E-1,7.944755554E-1,2.697906494E-1
4.363544571E0,9.041164815E-2,4.340829849E-1,4.520564079E-1
4.373544537E0,2.993207574E-1,-1.601452827E-1,5.037970543E-1
4.383544537E0,1.218435168E-1,-4.098496437E-1,2.638764381E-1
4.393544603E0,-3.824796677E-1,-6.767272949E-3,-9.636878967E-4
4.403544569E0,-5.433245897E-1,4.512767792E-1,-6.197261810E-2
4.413544569E0,-2.355222702E-1,5.495710373E-1,1.090121269E-1
4.423544602E0,-2.367586792E-1,5.489130020E-1,1.099257469E-1
4.433544602E0,8.676803112E-2,2.189025879E-1,2.289676666E-1
4.443544602E0,5.305039883E-2,-4.698410034E-1,-2.838325500E-2
4.453544568E0,-1.435100734E-1,-4.205961227E-1,-1.452054977E-1
4.463544601E0,-1.405673623E-1,-4.180774689E-1,-1.487607956E-1
4.473544601E0,-2.054071426E-1,-9.571361542E-2,-1.233072281E-1
4.483544534E0,-1.586323678E-1,-6.912517548E-2,-1.785125732E-1
4.493544567E0,-1.406579018E-1,-1.570129395E-1,-2.583203316E-1
4.503544600E0,-1.388629079E-1,-1.513586044E-1,-2.664918900E-1
4.513544600E0,-1.129776239E-1,-3.059644699E-1,-2.317581177E-1
4.523544533E0,-1.929665208E-1,-3.621892929E-1,-2.021298409E-1
4.533544499E0,-3.217156827E-1,-2.676239014E-1,-1.317696571E-1
4.543544532E0,-3.341307938E-1,-7.767343521E-2,-8.722686768E-2
4.553544532E0,-2.066894472E-1,8.992958069E-2,-2.721166611E-2
4.563544498E0,-2.101190090E-1,9.383392334E-2,-3.302383423E-2
4.573544531E0,-1.202622056E-1,4.991407394E-1,6.771230698E-2
4.583544564E0,-2.377539873E-3,5.515823364E-1,7.887220383E-2
4.593544564E0,2.371761948E-1,2.893753052E-1,1.370682716E-1
4.603544530E0,3.001417816E-1,-7.355403900E-2,1.787781715E-1
4.613544563E0,-2.105990052E-2,-2.282595634E-1,8.418846130E-2
4.623543929E0,-1.721942425E-2,-2.279171944E-1,8.388853073E-2
4.633543195E0,-5.908710361E-1,6.278772354E-1,1.868977547E-1
4.643542295E0,-5.639501214E-1,6.227302551E-1,1.957869530E-1
4.653541661E0,-3.236562014E-2,5.670547485E-1,7.821655273E-1
4.663540761E0,-2.913591266E-2,5.668354034E-1,7.826886177E-1
4.673539894E0,2.689637542E-1,-4.993958473E-1,5.863757133E-1
4.683539894E0,-8.870613575E-2,-3.769855499E-1,1.226844788E-1
4.693539194E0,-3.682847321E-1,1.215581894E-1,-3.562602997E-1
4.703538660E0,-2.813276052E-1,3.631792068E-1,-4.463248253E-1
4.713538660E0,-1.875865161E-1,4.043083191E-1,-3.449883461E-1
4.723538260E0,-1.482579112E-1,3.042268753E-1,-2.005558014E-1
4.733538326E0,-6.593081355E-2,1.911354065E-2,-4.339027405E-2
4.743538326E0,2.598434687E-2,-3.005456924E-1,3.041982651E-2
4.753538326E0,-8.503702283E-2,-4.683465958E-1,3.800487518E-2
4.763538292E0,-2.972645760E-1,-2.744908333E-1,-2.647733688E-2
4.773538292E0,-3.574605584E-1,1.722650528E-1,-3.948640823E-2
4.783538325E0,-2.556344569E-1,4.194221497E-1,4.686117172E-2
4.793538291E0,-1.980214715E-1,4.333229065E-1,1.010656357E-1
4.803538324E0,-1.388339102E-1,2.903623581E-1,1.282758713E-1
4.813538357E0,-1.450598240E-3,-1.433997154E-1,1.330761909E-1
4.823538357E0,-7.299393415E-3,-1.492314339E-1,1.410717964E-1
4.833538390E0,-2.356615067E-1,-3.136224747E-1,3.000879288E-2
4.843538356E0,-4.287585616E-1,1.344976425E-1,3.204393387E-2
4.853538389E0,-2.839030325E-1,4.621286392E-1,1.478066444E-1
4.863538422E0,-2.963343859E-1,4.530725479E-1,1.601824760E-1
4.873538388E0,3.714501858E-3,4.875898361E-1,4.024176598E-1
4.883538354E0,6.666122377E-2,3.801574707E-1,4.207277298E-1
4.893538354E0,1.550695002E-1,2.414093018E-1,3.868789673E-1
4.903538387E0,1.095239222E-1,1.842823029E-1,2.260823250E-1
4.913538320E0,4.590915143E-2,9.166526794E-2,6.492662430E-2
4.923538986E0,3.561834991E-2,8.151721954E-2,7.959556580E-2
4.933539686E0,-2.032636851E-1,4.341907501E-1,-1.049613953E-2
4.943540552E0,-2.119878232E-1,4.264507294E-1,7.481575012E-4
4.953541185E0,1.812493801E-2,5.830593109E-1,1.796927452E-1
4.963542051E0,2.209811211E-1,3.501014709E-1,2.450718880E-1
4.973542984E0,2.308156490E-1,3.834438324E-2,1.569762230E-1
4.983542984E0,2.235394418E-1,3.310680389E-2,1.646647453E-1
4.993543617E0,-4.746143520E-2,2.197151184E-1,-8.661222458E-2
5.003544150E0,-3.134958446E-2,3.468971252E-1,-1.565661430E-1
5.013544150E0,6.952267885E-2,3.553590775E-1,-1.466484070E-1
5.023544550E0,6.228175759E-2,3.528661728E-1,-1.430625916E-1
5.033544483E0,2.598947883E-1,-2.976479530E-1,-4.968929291E-2
5.043544483E0,5.474859476E-2,-4.598784447E-1,-3.019428253E-2
5.053544516E0,-1.432300210E-1,-3.260312080E-1,-1.889810562E-1
5.063544549E0,-1.960618645E-1,-1.118850708E-1,-2.766585350E-1
5.073544515E0,-1.984834671E-1,-1.159181595E-1,-2.705411911E-1
5.083544548E0,-1.327686012E-1,7.204055786E-3,-2.768902779E-1
5.093544581E0,1.505405456E-1,1.210451126E-1,-2.789702415E-1
5.103544514E0,3.530957997E-1,-4.231071472E-2,-1.884450912E-1
5.113544514E0,4.780534506E-1,-3.252563477E-1,-2.441000938E-1
5.123544514E0,4.011079669E-1,-4.071068764E-1,-3.810820580E-1
5.133544514E0,1.661416590E-1,-3.664298058E-1,-5.213041306E-1
5.143544580E0,1.677135080E-1,-3.679070473E-1,-5.189943314E-1
5.153544546E0,-3.400467038E-1,1.130456924E-1,-1.021286964E0
5.163544546E0,-5.191745609E-2,3.061952591E-1,-3.746838570E-1
5.173544612E0,3.331739008E-1,1.577491760E-1,1.995534897E-1
5.183544612E0,3.265840709E-1,1.628885269E-1,1.915106773E-1
5.193544612E0,1.295670271E-1,-1.714305878E-1,4.095253944E-1
5.203544578E0,5.343706906E-2,3.844356537E-2,3.986778259E-1
5.213544611E0,3.971432447E-1,3.813190460E-1,6.348190308E-1
5.223544611E0,3.746991456E-1,3.858470917E-1,6.276359558E-1
5.233544577E0,3.117461205E-1,2.854576111E-1,1.589093208E-1
5.243544610E0,2.321199477E-1,-6.857872009E-3,-1.340579987E-1
5.253544643E0,2.101934254E-1,-7.134437561E-3,-1.334433556E-1
5.263544643E0,1.039955020E-1,-2.499623299E-1,-3.423995972E-1
5.273544576E0,1.116524637E-2,-2.488446236E-1,-4.234123230E-2
5.283544542E0,-1.506383717E-1,-2.517070770E-1,5.159235001E-2
5.293544575E0,-3.733516634E-1,-1.872034073E-1,-4.189968109E-2
5.303544608E0,-4.764659405E-1,2.966022491E-2,-2.010617256E-1
5.313544574E0,-2.104040682E-1,1.271791458E-1,-3.594331741E-1
5.323544574E0,7.885974646E-2,-4.004955292E-2,-3.743915558E-1
5.333544607E0,2.152272314E-1,-4.114670753E-1,-3.523726463E-1
5.343544607E0,1.308131516E-1,-5.628228188E-1,-4.569444656E-1
5.353544573E0,-1.804971397E-1,-4.436421394E-1,-4.274086952E-1
5.363544606E0,-2.632379830E-1,-2.400889397E-1,-4.346871376E-1
5.373544639E0,-1.560375392E-1,-4.057693481E-2,-3.281750679E-1
5.383544572E0,-7.537175715E-2,7.439804077E-2,-2.098059654E-1
5.393544538E0,2.136544138E-2,1.829938889E-1,-9.027862549E-2
5.403544571E0,1.841139495E-1,4.725456238E-2,-4.476118088E-2
5.413544537E0,3.121553063E-1,-2.326569557E-1,-1.349296570E-1
5.423544537E0,2.722111344E-1,-2.810049057E-1,-2.671737671E-1
5.433544503E0,3.647241369E-2,4.892349243E-3,-3.357429504E-1
5.443544469E0,-1.611380838E-3,3.238306046E-1,-2.790889740E-1
5.453544502E0,9.050218016E-2,5.396919250E-1,-9.294033051E-2
5.463544468E0,9.371237457E-2,5.399703979E-1,-9.336566925E-2
5.473544468E0,2.693389356E-1,1.551694870E-1,2.924618721E-1
5.483544501E0,2.942748368E-1,-1.828260422E-1,3.296241760E-1
5.493544534E0,1.305775046E-1,-3.504390717E-1,1.790385246E-1
5.503544534E0,-1.163344011E-1,-8.911800385E-2,8.030176163E-2
5.513544500E0,-7.737075537E-2,3.635511398E-1,8.709287643E-2
5.523544500E0,-7.763824612E-2,3.673181534E-1,8.127403259E-2
5.533544533E0,9.038098156E-3,6.392765045E-1,2.860870361E-1
5.543544499E0,1.129909605E-2,6.421136856E-1,2.816896439E-1
5.553544499E0,1.750431210E-2,1.865634918E-1,1.951479912E-1
5.563544532E0,6.772424281E-2,-9.658145905E-2,1.301198006E-1
5.573544532E0,-1.656408012E-1,-1.447257996E-1,1.195669174E-1
5.583544565E0,-1.608455181E-1,-1.424379349E-1,1.159906387E-1
5.593544531E0,-2.492983639E-1,4.827661514E-1,2.722101212E-1
5.603544531E0,-1.058317050E-1,6.174631119E-1,3.370347023E-1
5.613544564E0,-1.080360860E-1,6.205167770E-1,3.323931694E-1
5.623543864E0,-8.495960385E-2,6.191768646E-1,3.510851860E-1
5.633543197E0,5.015330017E-2,1.056146622E-1,2.642083168E-1
5.643542430E0,-4.468005151E-2,-2.114219666E-1,1.961455345E-1
5.653541763E0,-3.169670105E-1,-1.740846634E-1,1.016845703E-1
5.663541696E0,-3.099486530E-1,-1.706409454E-1,9.640121460E-2
5.673540796E0,-1.963636279E-1,3.412303925E-1,1.078238487E-1
5.683540862E0,-6.158522516E-2,2.962226868E-1,1.549410820E-1
5.693540195E0,-6.069777906E-2,6.817626953E-2,5.048656464E-2
5.703540161E0,-4.143931344E-2,-2.350611687E-1,-5.008506775E-2
5.713540194E0,1.081805676E-3,-5.143938065E-1,-1.529912949E-1
5.723540227E0,-8.639109135E-2,-6.755776405E-1,-1.877121925E-1
5.733540760E0,-2.068096846E-1,-6.463246346E-1,-1.885004044E-1
5.743540726E0,-2.058605701E-1,-6.447443962E-1,-1.909003258E-1
5.753540692E0,-3.017063737E-1,-4.796242714E-1,-1.968278885E-1
5.763540725E0,-3.239436448E-1,1.335802078E-1,7.372856140E-3
5.773540658E0,-2.957366779E-2,-9.395027161E-2,3.975057602E-2
5.783540624E0,3.186449409E-3,-4.612398148E-1,-4.860258102E-2
5.793540590E0,-2.622686028E-1,-6.332941055E-1,-2.286973000E-1
5.803540656E0,-3.655876815E-1,-5.043802261E-1,-2.760305405E-1
5.813540689E0,-1.440026015E-1,-3.829298019E-1,-3.133726120E-1
5.823540655E0,-1.432495862E-1,-3.836526871E-1,-3.122873306E-1
5.833540688E0,4.310037941E-2,3.227615356E-2,-2.083268166E-1
5.843540721E0,1.186048985E-1,1.344480515E-1,-2.071442604E-1
5.853540687E0,2.494566441E-1,-9.371280670E-2,-2.036628723E-1
5.863540720E0,2.513243258E-1,-9.388923645E-2,-2.034053802E-1
5.873540753E0,-1.505617350E-1,-3.162999153E-1,-3.522367477E-1
5.883540719E0,-2.452757657E-1,-8.620262146E-2,-3.693919182E-1
5.893540719E0,-2.414018512E-1,1.344003677E-1,-2.980656624E-1
5.903540685E0,-8.432787657E-2,2.640304565E-1,-1.693029404E-1
5.913540685E0,9.609101713E-2,1.852684021E-1,-7.389450073E-2
5.923541418E0,9.718290716E-2,1.855373383E-1,-7.430553436E-2
5.933542051E0,2.363156974E-1,-2.854332924E-1,-5.857992172E-2
5.943542817E0,2.369658351E-1,-2.841782570E-1,-6.046342850E-2
5.953543483E0,-1.612069756E-1,2.391815186E-2,-8.926820755E-2
5.963543516E0,-2.335314006E-1,2.675104141E-1,-1.293802261E-2
5.973544416E0,-2.084703147E-1,4.726247787E-1,1.546254158E-1
5.983544349E0,-2.078863829E-1,4.739322662E-1,1.526513100E-1
5.993545049E0,-5.961904302E-3,-1.140308380E-1,1.870455742E-1
6.003545082E0,-4.995061457E-2,-4.459176064E-1,3.965044022E-2
6.013545048E0,-2.741312683E-1,-3.855285645E-1,-1.646475792E-1
6.023545048E0,-3.478515148E-1,-3.088188171E-2,-2.321243286E-1
6.033544548E0,-1.259052902E-1,2.263479233E-1,-1.355066299E-1
6.043544548E0,1.903561503E-2,2.471065521E-1,3.336429596E-3
6.053544548E0,-6.020656228E-2,2.133188248E-1,1.390137672E-1
6.063544514E0,-7.596417516E-2,7.919120789E-2,2.073197365E-1
6.073544547E0,-1.197740138E-1,-2.082533836E-1,2.015652657E-1
6.083544580E0,-1.681352407E-1,-2.540898323E-1,9.555244446E-2
6.093544580E0,-2.325358838E-1,-1.181554794E-1,-6.522798538E-2
6.103544513E0,-2.074911594E-1,1.056919098E-1,-9.091567993E-2
6.113544546E0,-1.199774295E-1,2.906637192E-1,-7.505512238E-2
6.123544579E0,-1.186994389E-1,4.054460526E-1,5.447340012E-2
6.133544512E0,5.016797781E-2,3.450727463E-1,1.941514015E-1
6.143544478E0,1.206790805E-1,8.845233917E-2,2.403244972E-1
6.153544511E0,7.146087289E-2,-1.988692284E-1,2.283663750E-1
6.163544444E0,-1.393666863E-1,-1.551346779E-1,2.082204819E-1
6.173544444E0,-1.846825480E-1,2.128190994E-1,1.530661583E-1
6.183544444E0,-1.866778880E-1,2.151479721E-1,1.495733261E-1
6.193544477E0,1.840502322E-1,3.785648346E-1,3.318114281E-1
6.203544543E0,1.205735654E-1,1.785984039E-1,3.193225861E-1
6.213544543E0,-1.433192939E-1,9.359359741E-3,2.620072365E-1
6.223544543E0,-1.364868879E-1,1.211547852E-2,2.579832077E-1
6.233544576E0,-1.738179028E-1,-2.222666740E-1,3.283281326E-1
6.243544576E0,-9.790552408E-2,-3.268823624E-1,3.548488617E-1
6.253544576E0,-1.837119460E-1,-1.868281364E-1,2.297983170E-1
6.263544542E0,-3.759758770E-1,3.476781845E-1,1.223683357E-1
6.273544542E0,-3.322784901E-1,8.634042740E-1,3.712320328E-2
6.283544575E0,-1.039147004E-1,8.099384308E-1,3.827381134E-2
6.293544541E0,1.245287359E-1,3.707609177E-1,1.140213013E-1
6.303544541E0,6.845825166E-2,-2.451896667E-2,1.574783325E-1
6.313544574E0,-1.126034632E-1,-2.299222946E-1,1.735367775E-1
6.323544540E0,-3.378986716E-1,7.965087891E-3,2.465391159E-1
6.333544540E0,-1.989983022E-1,2.891969681E-1,4.293012619E-1
6.343544540E0,-1.974477768E-1,2.901086807E-1,4.279751778E-1
6.353544573E0,-2.699680626E-2,2.643108368E-1,5.923566818E-1
6.363544606E0,-3.029526025E-2,2.636432648E-1,5.933041573E-1
6.373544572E0,-3.052630424E-1,4.078254700E-1,6.452465057E-2
6.383544572E0,-2.083772421E-1,3.570947647E-1,-6.774806976E-2
6.393544605E0,1.193160415E-1,5.318832397E-2,-2.990732193E-1
6.403544605E0,1.203325242E-1,5.158042908E-2,-2.966761589E-1
6.413544538E0,-6.379728019E-2,5.082321167E-2,-3.098726273E-1
6.423544504E0,9.111091495E-3,2.515382767E-1,-2.158689499E-1
6.433544537E0,2.209867686E-1,1.386966705E-1,9.107303619E-2
6.443544537E0,1.970229745E-1,-9.330177307E-2,2.846093178E-1
6.453544503E0,-3.182604909E-2,-2.486710548E-1,2.410993576E-1
6.463544536E0,-3.508380800E-2,-2.493844032E-1,2.421083450E-1
6.473544536E0,-2.892676592E-1,1.016530991E-1,3.034305573E-2
6.483544536E0,-2.934296727E-1,1.016206741E-1,3.036117554E-2
6.493544502E0,2.294122130E-1,6.854629517E-2,1.302137375E-1
6.503544435E0,2.284751534E-1,6.907081604E-2,1.294188499E-1
6.513544435E0,3.547222167E-2,-2.612371445E-1,3.115987778E-2
6.523544368E0,4.670768976E-3,-1.134061813E-1,-2.773666382E-2
6.533544334E0,9.199154377E-2,7.191371918E-2,6.061792374E-2
6.543544367E0,9.249255806E-2,7.006835938E-2,6.336069107E-2
6.553544367E0,6.226071715E-2,1.657438278E-1,2.466139793E-1
6.563544367E0,-2.127762139E-2,2.271747589E-1,1.532044411E-1
6.573544333E0,1.215513423E-2,2.592658997E-1,-1.530647278E-3
6.583544366E0,8.987460285E-3,2.558803558E-1,3.489494324E-3
6.593544399E0,4.367530942E-1,-1.938838959E-1,-8.445501328E-2
6.603544365E0,4.248257577E-1,-3.980722427E-1,-1.456975937E-1
6.613544398E0,1.944312155E-1,-4.122085571E-1,-2.202715874E-1
6.623543764E0,9.548310190E-3,-1.029224396E-1,-2.400636673E-1
6.633543064E0,6.503032148E-2,3.018093109E-1,-1.228852272E-1
6.643542397E0,2.423196137E-1,3.493747711E-1,4.481792450E-3
6.653541997E0,2.391830683E-1,3.484163284E-1,5.894660950E-3
6.663541130E0,7.225866616E-2,-1.012077332E-1,-1.804375648E-1
6.673541196E0,1.578713208E-2,-5.625629425E-2,-3.245024681E-1
6.683540796E0,1.686640233E-1,6.035804749E-3,-3.018646240E-1
6.693540796E0,3.196246028E-1,-3.085136414E-2,-6.341552734E-2
6.703540162E0,3.122117519E-1,-2.973270416E-2,-6.513023376E-2
6.713540162E0,-1.551430859E-2,4.565267563E-1,3.929781914E-1
6.723539995E0,-1.623297855E-2,4.597806931E-1,3.881130219E-1
6.733539961E0,8.534443378E-2,4.870634079E-1,5.890150070E-1
6.743540027E0,1.692125201E-1,2.530221939E-1,4.696331024E-1
6.753540060E0,4.693615809E-2,2.467060089E-2,1.872844696E-1
6.763540026E0,-3.653166816E-2,6.863403320E-2,-7.615089417E-4
6.773540059E0,9.001344442E-2,1.699504852E-1,-4.293918610E-3
6.783540092E0,2.242760956E-1,2.165822983E-1,6.103706360E-2
6.793540092E0,4.005416632E-1,1.534662247E-1,2.000150681E-1
6.803540125E0,3.348669708E-1,-2.220344543E-2,2.552294731E-1
6.813540091E0,1.813403070E-1,-2.504572868E-1,1.762547493E-1
6.823539457E0,1.791343987E-1,-2.486510277E-1,1.735587120E-1
6.833539490E0,-2.387369424E-1,-3.876700401E-1,-7.158899307E-2
6.843539456E0,-3.475636542E-1,-3.091650009E-1,-1.749434471E-1
6.853539489E0,-3.765288889E-1,-1.691484451E-1,-1.910176277E-1
6.863539522E0,-2.974856198E-1,-8.008193970E-2,-1.869459152E-1
6.873539522E0,-1.991908848E-1,-1.307706833E-1,-2.796959877E-1
6.883539455E0,-1.823028177E-1,-2.565813065E-1,-3.423919678E-1
6.893539421E0,-2.420486808E-1,-2.798047066E-1,-3.949670792E-1
6.903539454E0,-2.393288314E-1,-2.811245918E-1,-3.929996490E-1
6.913539387E0,-1.058776602E-1,-3.678522110E-1,-2.700901031E-1
6.923540020E0,-1.392214149E-1,-4.292936325E-1,-1.372098923E-1
6.933540686E0,-1.825363189E-1,-3.457388878E-1,-3.028059006E-2
6.943541386E0,-1.822021902E-1,-3.431019783E-1,-3.419303894E-2
6.953541786E0,-4.735993594E-2,-5.778980255E-2,1.101102829E-1
6.963542619E0,1.278094351E-1,-2.130227089E-1,2.089405060E-1
6.973542619E0,1.852267385E-1,-4.572176933E-1,1.503105164E-1
6.983543019E0,1.865735501E-1,-4.557290077E-1,1.481084824E-1
6.993542985E0,-2.856450975E-1,-1.660170555E-1,-2.469286919E-1
7.003543618E0,-1.651102006E-1,2.345514297E-1,-3.497943878E-1
7.013543618E0,1.518432200E-1,2.751111984E-1,-3.867201805E-1
7.023543851E0,1.497642249E-1,2.735433578E-1,-3.844151497E-1
7.033543884E0,1.773458421E-1,-8.848667145E-2,-3.262019157E-1
7.043543817E0,2.277553082E-2,-1.688003540E-3,-1.738786697E-1
7.053543817E0,2.487030998E-2,6.828308105E-4,-1.773686409E-1
7.063543850E0,-7.111461461E-2,3.448677063E-2,2.352523804E-1
7.073543783E0,3.634692430E-1,-8.222293854E-2,5.229601860E-1
7.083543783E0,2.540502250E-1,3.012752533E-2,8.095173836E-1
7.093543783E0,1.055456623E-1,2.427721024E-1,7.791848183E-1
7.103543783E0,1.823844314E-1,4.995870590E-1,5.412216187E-1
7.113543816E0,4.943132699E-1,6.805887222E-1,2.061934471E-1
7.123544449E0,6.172124147E-1,4.945545197E-1,-1.170420647E-1
7.133544449E0,3.968142569E-1,-1.941204071E-2,-2.823257446E-1
7.143544515E0,4.151393175E-1,-2.382087708E-2,-2.756323814E-1
7.153544481E0,-2.268280983E-1,2.162151337E-1,1.031236649E-1
7.163544447E0,-3.627489507E-1,4.511566162E-1,3.136324883E-1
7.173544447E0,-3.291256428E-1,4.553050995E-1,6.464471817E-1
7.183544480E0,-3.245729506E-1,4.581718445E-1,6.423029900E-1
7.193544480E0,-1.286882013E-1,1.809406281E-2,4.609231949E-1
7.203544446E0,-9.733459353E-2,-1.829457283E-1,3.064422607E-1
7.213544479E0,-3.162267804E-1,-2.409400940E-1,6.197261810E-2
7.223544512E0,-3.104130626E-1,-2.395877838E-1,6.010103226E-2
7.233544512E0,-4.313927293E-1,2.355070114E-1,-1.735372543E-1
7.243544478E0,-3.070799708E-1,3.561782837E-1,-8.385229111E-2
7.253544444E0,-1.511545777E-1,2.254171371E-1,1.061964035E-2
7.263544477E0,-1.188155413E-1,-3.488063812E-2,1.446294785E-2
7.273544410E0,-1.742908359E-1,-1.321840286E-1,-7.086849213E-2
7.283544376E0,-2.471467555E-1,5.191898346E-2,-9.838199615E-2
7.293544409E0,-1.590758264E-1,2.949075699E-1,-4.360675812E-3
7.303544442E0,-1.609306484E-1,2.979021072E-1,-8.828163147E-3
7.313544442E0,-1.219038665E-1,4.453268051E-1,2.728714943E-1
7.323544375E0,-1.219283342E-1,4.492359161E-1,2.671422958E-1
7.333544408E0,-1.565537304E-1,4.121656418E-1,4.222784042E-1
7.343544441E0,-1.547879577E-1,4.153184891E-1,4.177331924E-1
7.353544407E0,-9.106455743E-2,-2.071905136E-1,3.640379906E-1
7.363544440E0,-1.999583691E-1,-5.273914337E-2,3.144049644E-1
7.373544473E0,-1.930686980E-1,4.421167374E-1,3.348693848E-1
7.383544439E0,-1.775949299E-1,4.479722977E-1,3.270254135E-1
7.393544439E0,2.365913838E-1,4.231796265E-1,4.302315712E-1
7.403544405E0,1.269959211E-1,1.556787491E-1,3.070955276E-1
7.413544405E0,-1.680156291E-1,5.201721191E-2,9.394931793E-2
7.423544438E0,-2.552526593E-1,9.702873230E-2,1.712846756E-2
7.433544404E0,-7.672195137E-2,-8.464813232E-3,8.836841583E-2
7.443544370E0,-3.194779158E-3,-1.362690926E-1,1.811208725E-1
7.453544403E0,3.793963790E-2,-1.585736275E-1,2.485928535E-1
7.463544403E0,-2.111628652E-2,-9.181928635E-2,2.329721451E-1
7.473544436E0,-6.611469388E-2,2.162170410E-2,1.707911491E-1
7.483544402E0,-3.748619556E-2,5.445671082E-2,1.132798195E-1
7.493544435E0,6.995865703E-2,-4.099845886E-2,2.183246613E-2
7.503544468E0,6.754735112E-2,-1.546349525E-1,-9.868383408E-2
7.513544434E0,-1.056196094E-1,-8.052110672E-2,-2.386789322E-1
7.523544434E0,-1.016343236E-1,-8.434820175E-2,-2.329959869E-1
7.533544467E0,-2.263963223E-2,2.154512405E-1,-6.861543655E-2
7.543544467E0,8.801117539E-2,1.610641479E-1,7.390737534E-2
7.553544467E0,1.411208361E-1,-1.059422493E-1,1.222848892E-1
7.563544433E0,1.683884859E-1,-3.269095421E-1,8.118295670E-2
7.573544466E0,1.952756941E-1,-3.428711891E-1,-5.011558533E-4
7.583544499E0,1.899420917E-1,-3.429579735E-1,-6.437301636E-4
7.593544465E0,6.089608371E-2,4.531087875E-1,2.615547180E-2
7.603544465E0,1.376240551E-1,7.471771240E-1,1.070003510E-1
7.613544498E0,3.506295383E-1,6.125869751E-1,1.569557190E-1
7.623543831E0,3.522680998E-1,1.466875076E-1,9.099245071E-2
7.633543097E0,1.811590344E-1,-2.130460739E-1,-1.114811897E-1
7.643543097E0,1.865493506E-1,-2.151937485E-1,-1.081271172E-1
7.653542463E0,3.307919204E-2,1.694297791E-1,-6.971216202E-2
7.663541529E0,2.945025265E-2,1.658191681E-1,-6.466865540E-2
7.673541529E0,3.940481544E-1,2.409391403E-1,1.775813103E-1
7.683541562E0,3.827942014E-1,2.373485565E-1,1.822781563E-1
7.693541195E0,-4.174202681E-2,1.509771347E-1,-8.363246918E-3
7.703540528E0,-4.789689183E-2,1.494846344E-1,-6.455898285E-3
7.713540528E0,2.311386615E-1,-6.081676483E-2,-6.223058701E-2
7.723540394E0,3.505804539E-1,-3.073420525E-1,-4.916286469E-2
7.733540427E0,3.016992807E-1,-4.137272835E-1,-8.816099167E-2
7.743541027E0,3.079092503E-2,-2.184305191E-1,-1.007113457E-1
7.753541027E0,-2.292883545E-1,1.999349594E-1,-1.078457832E-1
7.763541060E0,-2.246994972E-1,5.014953613E-1,-5.003070831E-2
7.773541026E0,-2.246941626E-1,4.996929169E-1,-4.742050171E-2
7.783541026E0,-9.212881327E-3,3.004198074E-1,5.002498627E-2
7.793540992E0,-9.647561610E-2,-3.538699150E-1,-1.085639000E-1
7.803540992E0,-1.107954085E-1,-3.044400215E-1,-2.141842842E-1
7.813541025E0,-1.143566817E-1,-3.066306114E-1,-2.111377716E-1
7.823540991E0,1.247657537E-1,1.218843460E-1,6.176996231E-2
7.833541024E0,8.514161408E-2,1.430149078E-1,1.163005829E-1
7.843541057E0,-5.320385098E-3,3.377914429E-2,1.690950394E-1
7.853541057E0,-1.898756474E-1,-1.785993576E-1,2.318124771E-1
7.863541090E0,-1.985331625E-1,-2.768373489E-1,2.357683182E-1
7.873541056E0,-1.554265618E-2,-2.578492165E-1,1.348757744E-1
7.883541056E0,4.025785625E-2,-1.399617195E-1,-2.702045441E-2
7.893541089E0,9.490743279E-2,9.581279755E-2,-1.518278122E-1
7.903541055E0,1.521815956E-1,2.039680481E-1,-1.562781334E-1
7.913541055E0,2.261583209E-1,3.565216064E-2,-1.518912315E-1
7.923541755E0,2.218312472E-1,3.268718719E-2,-1.477923393E-1
7.933542421E0,-6.846949458E-2,-3.656911850E-1,-7.951307297E-2
7.943542387E0,-6.710617244E-2,-3.651857376E-1,-8.019828796E-2
7.953543020E0,-2.894794941E-1,4.243946075E-2,1.241827011E-2
7.963543920E0,-1.765253842E-1,2.227506638E-1,9.523677826E-2
7.973543920E0,3.679813445E-2,2.032899857E-1,9.559488297E-2
7.983543886E0,7.439325750E-2,2.498626709E-2,-6.568956375E-2
7.993544286E0,-2.774243057E-2,-7.296562195E-2,-2.613282204E-1
8.003544986E0,5.725201964E-2,-1.069502831E-1,-2.930574417E-1
8.013544952E0,2.824665606E-1,-3.491897583E-1,-2.888731956E-1
8.023545052E0,4.054658413E-1,-5.736880302E-1,-2.957544327E-1
8.033545018E0,2.143579870E-1,-5.272450447E-1,-3.271698952E-1
8.043544418E0,-3.090782464E-2,-1.597785950E-1,-3.205342293E-1
8.053544384E0,-2.499302477E-1,2.245826721E-1,-2.805628777E-1
8.063544350E0,-1.865376532E-1,2.238559723E-1,-1.430983543E-1
8.073544383E0,-4.866349697E-2,-2.336645126E-1,-6.868219376E-2
8.083544416E0,-1.333401650E-1,-6.286725998E-1,-2.604017258E-1
8.093544416E0,-4.014682770E-1,-6.626777649E-1,-4.679908752E-1
8.103544382E0,-5.959101915E-1,-3.527669907E-1,-5.281343460E-1
8.113544415E0,-4.442839921E-1,1.893043518E-2,-2.715034485E-1
8.123544448E0,-1.115157455E-1,1.270446777E-1,-1.655249596E-1
8.133544381E0,-1.030417234E-1,-2.360343933E-3,-3.022861481E-2
8.143544347E0,-3.701734543E-2,-2.350320816E-1,2.580642700E-3
8.153544380E0,-2.553203404E-1,-4.986238480E-1,-7.033014297E-2
8.163544346E0,-3.798832893E-1,-5.148429871E-1,-1.778635979E-1
8.173544346E0,-3.934426308E-1,-3.674831390E-1,-1.835231781E-1
8.183544312E0,-2.752280533E-1,-1.642885208E-1,-9.453916550E-2
8.193544312E0,-1.775016934E-1,-9.922552109E-2,-9.068012238E-3
8.203544345E0,-1.955289990E-1,-7.692813873E-2,-3.656005859E-2
8.213544311E0,-2.979575396E-1,-2.630424500E-2,-1.422848701E-1
8.223544344E0,-3.367643356E-1,5.710220337E-2,-1.534290314E-1
8.233544377E0,-1.682338715E-1,1.279582977E-1,-8.464002609E-2
8.243544377E0,1.509841233E-1,-6.747245789E-2,2.313899994E-2
8.253544377E0,1.101286113E-1,-1.577396393E-1,5.910730362E-2
8.263544343E0,5.918188393E-2,-5.955791473E-2,-1.416254044E-2
8.273544343E0,5.554644763E-2,-6.272411346E-2,-9.673595428E-3
8.283544376E0,-1.596430242E-1,2.525491714E-1,2.587985992E-2
8.293544342E0,-2.435387075E-1,4.253444672E-1,1.435117722E-1
8.303544342E0,-2.477880269E-1,4.240856171E-1,1.451888084E-1
8.313544375E0,2.470399290E-1,1.179313660E-2,1.792149544E-1
8.323544375E0,3.036800921E-1,-2.181892395E-1,3.555250168E-2
8.333544408E0,1.234846339E-1,-7.237529755E-2,-1.222333908E-1
8.343544374E0,1.233355775E-1,-7.278060913E-2,-1.216430664E-1
8.353544407E0,2.965601087E-1,4.149446487E-1,2.304935455E-2
8.363544440E0,2.950220108E-1,4.137496948E-1,2.474832535E-2
8.373544406E0,4.860005081E-1,-1.796236038E-1,1.280694008E-1
8.383544406E0,4.792029560E-1,-1.834335327E-1,1.334381104E-1
8.393544439E0,-1.040425003E-1,2.765226364E-1,-1.617050171E-1
8.403544439E0,2.421769500E-2,4.184894562E-1,-6.001996994E-2
8.413544372E0,1.863785088E-2,4.154739380E-1,-5.574083328E-2
8.423544338E0,2.564442158E-1,3.990058899E-1,9.321355820E-2
8.433544371E0,2.424742281E-1,1.551046371E-1,-1.001639366E-1
8.443544371E0,1.883793473E-1,4.265689850E-2,-2.236561775E-1
8.453544337E0,1.933331788E-1,-4.078006744E-2,-2.182388306E-1
8.463544337E0,2.982919812E-1,-1.088418961E-1,-9.222936630E-2
8.473544403E0,3.010984063E-1,-9.386062622E-2,2.403402328E-2
8.483544436E0,2.940594554E-1,-9.252357483E-2,2.184247971E-2
8.493544402E0,8.991999924E-2,4.116735458E-1,1.464228630E-1
8.503544368E0,8.283419907E-2,4.130296707E-1,1.442189217E-1
8.513544401E0,-7.989625633E-2,3.546829224E-1,2.304553986E-1
8.523544367E0,-1.807121038E-1,2.366991043E-1,2.613563538E-1
8.533544333E0,-2.600768805E-1,2.603073120E-1,2.894124985E-1
8.543544333E0,-2.588283420E-1,2.623567581E-1,2.864141464E-1
8.553544399E0,-7.279819250E-2,5.084314346E-1,3.914432526E-1
8.563544432E0,-7.002776861E-2,5.095109940E-1,3.899135590E-1
8.573544398E0,-1.511420310E-1,4.905958176E-1,5.644092560E-1
8.583544431E0,-3.773833811E-1,6.215696335E-1,5.487165451E-1
8.593544464E0,-2.873734832E-1,7.905082703E-1,4.999709129E-1
8.603544430E0,-2.920860350E-1,7.899312973E-1,5.007119179E-1
8.613544430E0,2.662820220E-1,2.227210999E-2,5.327129364E-1
8.623543763E0,2.574410439E-1,2.493858337E-2,5.285668373E-1
8.633543096E0,5.718611553E-2,5.281352997E-2,4.005823135E-1
8.643542529E0,-1.194383502E-1,6.438665390E-1,4.203443527E-1
8.653541629E0,5.956307054E-2,6.386814117E-1,4.834165573E-1
8.663540762E0,6.576126814E-2,6.413993835E-1,4.795570374E-1
8.673540128E0,-7.161217928E-2,-9.361648560E-2,1.086592674E-1
8.683540094E0,-2.921469808E-1,-1.303153038E-1,-8.755731583E-2
8.693540060E0,-2.596135736E-1,6.116580963E-2,-1.042113304E-1
8.703540060E0,-1.374226809E-2,2.093210220E-1,1.098299026E-2
8.713540093E0,1.966317892E-1,1.666746140E-1,1.249275208E-1
8.723539726E0,9.340118617E-2,1.105098724E-1,7.956695557E-2
8.733539692E0,-3.564728051E-2,1.147756577E-1,-9.644985199E-3
8.743539725E0,-3.465607762E-2,1.132793427E-1,-7.405757904E-3
8.753539791E0,-2.042692900E-2,-2.029361725E-1,-8.125019073E-2
8.763539791E0,2.999618649E-3,-3.983521461E-1,-4.653072357E-2
8.773539724E0,-1.165698320E-1,-3.757867813E-1,-3.347682953E-2
8.783539690E0,-9.071904421E-2,-2.774620056E-1,2.372741699E-3
8.793539723E0,-4.154774547E-2,-2.116565704E-1,-5.316019058E-2
8.803539723E0,2.005888522E-2,-1.089744568E-1,-1.330275536E-1
8.813539689E0,5.932034552E-2,-1.465988159E-2,-2.327709198E-1
8.823539689E0,5.346731842E-2,-1.888751984E-2,-2.266407013E-1
8.833539722E0,1.213154793E-1,-1.320943832E-1,-3.419427872E-1
8.843539722E0,3.213854879E-2,-1.049385071E-1,-3.588814735E-1
8.853539655E0,-4.997260869E-2,1.825122833E-1,-1.987667084E-1
8.863539688E0,4.497954994E-2,2.610664368E-1,5.689382553E-2
8.873539721E0,2.183049917E-3,1.373491287E-1,1.958265305E-1
8.883539654E0,-2.093657255E-1,1.717128754E-1,1.790876389E-1
8.893539654E0,-2.620506883E-1,4.207277298E-1,1.995034218E-1
8.903539687E0,-4.282134771E-2,4.919309616E-1,3.477406502E-1
8.913539653E0,3.304725289E-1,1.885681152E-1,5.203537941E-1
8.923540353E0,2.869591117E-1,-8.158779144E-2,4.574632645E-1
8.933540986E0,-1.616832614E-2,1.013975143E-1,2.822465897E-1
8.943541586E0,-2.005451918E-2,1.047697067E-1,2.771749496E-1
8.953542486E0,-3.690846264E-2,5.552387238E-1,2.933378220E-1
8.963543319E0,1.142042503E-1,4.342660904E-1,2.831263542E-1
8.973544019E0,1.083013862E-1,9.528636932E-2,1.198811531E-1
8.983544052E0,1.035704836E-1,9.437274933E-2,1.211285591E-1
8.993544052E0,-9.112206846E-2,-4.063415527E-2,-1.791653633E-1
9.003544052E0,-2.217605710E-3,6.421089172E-3,-2.114057541E-1
9.013544018E0,1.403365433E-1,-7.945060730E-3,-1.969671249E-1
9.023544418E0,1.437543184E-1,-8.460044861E-3,-1.961345673E-1
9.033544451E0,-7.061871141E-2,4.729843140E-2,-3.252139091E-1
9.043544417E0,-6.730425358E-2,4.426002502E-2,-3.206191063E-1
9.053544383E0,-1.613854617E-1,2.150707245E-1,-1.638541222E-1
9.063544416E0,2.165578306E-3,-3.290557861E-2,-4.814386368E-2
9.073544416E0,-4.841653258E-2,-2.699856758E-1,-8.769989014E-2
9.083544449E0,-1.034564301E-1,-4.244689941E-1,-1.529660225E-1
9.093544415E0,-1.950458884E-1,-3.814067841E-1,-2.080507278E-1
9.103544448E0,-1.986168027E-1,-1.279630661E-1,-1.656494141E-1
9.113544481E0,-7.948415726E-2,1.815576553E-1,-1.699972153E-2
9.123544447E0,1.758844703E-1,2.354040146E-1,1.117529869E-1
9.133544447E0,2.868808508E-1,-5.324172974E-2,8.984231949E-2
9.143544480E0,2.865263522E-1,-5.053710938E-2,8.582735062E-2
9.153544480E0,-1.493912190E-1,-1.160202026E-1,-7.414340973E-3
9.163544413E0,-1.471986026E-1,-1.157217026E-1,-7.825374603E-3
9.173544379E0,-1.548699737E-1,-7.798385620E-2,2.654552460E-2
9.183544412E0,-1.533443630E-1,-1.468276978E-2,-2.420663834E-2
9.193544378E0,-4.828633368E-2,4.573154449E-2,-9.102296829E-2
9.203544344E0,6.203019246E-2,-4.647731781E-2,-7.012414932E-2
9.213544410E0,3.971549124E-2,-1.997117996E-1,4.050731659E-3
9.223544410E0,3.850150853E-2,-1.984510422E-1,2.153873444E-3
9.233544410E0,-1.932169199E-1,4.553890228E-2,2.527618408E-2
9.243544376E0,-1.923793703E-1,4.786872864E-2,2.183055878E-2
9.253544342E0,-1.321552694E-2,2.698431015E-1,1.270346642E-1
9.263544375E0,2.357473969E-1,-5.982494354E-2,9.717893600E-2
9.273544308E0,2.344200313E-1,-3.475580215E-1,-5.307912827E-2
9.283544274E0,9.771211445E-2,-2.178392410E-1,-1.914401054E-1
9.293544307E0,-5.283010751E-2,2.303628922E-1,-1.215257645E-1
9.303544307E0,-4.877184331E-2,2.292490005E-1,-1.198091507E-1
9.313544307E0,1.464219391E-1,2.358760834E-1,2.641477585E-1
9.323544273E0,-1.156973392E-1,-3.540039062E-2,1.432046890E-1
9.333544306E0,-4.024902880E-1,6.106376648E-3,-7.460308075E-2
9.343544339E0,-3.976683617E-1,4.034996033E-3,-7.142543793E-2
9.353544305E0,1.433804482E-1,3.619766235E-2,4.316329956E-2
9.363544338E0,3.305244744E-1,-1.362295151E-1,8.628702164E-2
9.373544371E0,2.982867062E-1,-1.166315079E-1,-7.768154144E-3
9.383544337E0,3.003076911E-1,-1.167993546E-1,-7.470607758E-3
9.393544370E0,2.383197844E-2,1.335573196E-1,-3.147101402E-1
9.403544336E0,-1.088209525E-1,2.467708588E-1,-3.479943275E-1
9.413544336E0,-8.422895521E-2,2.109375000E-1,-2.894139290E-1
9.423544369E0,1.821596920E-2,-9.375190735E-2,-2.992372513E-1
9.433544335E0,-9.374342859E-2,-4.036111832E-1,-4.545550346E-1
9.443544335E0,-2.439258099E-1,-3.354706764E-1,-5.424051285E-1
9.453544368E0,-2.476841360E-1,-1.499805450E-1,-4.986104965E-1
9.463544368E0,-2.498907745E-1,-1.518993378E-1,-4.957838058E-1
9.473544401E0,-1.023036093E-1,2.398757935E-1,-1.186499596E-1
9.483544367E0,-4.725384712E-2,1.611080170E-1,4.852056503E-2
9.493544400E0,2.569931000E-2,-4.305171967E-2,1.344780922E-1
9.503544433E0,2.610474825E-2,-3.961944580E-2,1.293430328E-1
9.513544366E0,-5.262077600E-2,-3.486356735E-1,1.320562363E-1
9.523544366E0,-4.811505973E-2,-3.431892395E-1,1.240296364E-1
9.533544399E0,-5.190113783E-1,4.038906097E-2,3.509149551E-1
9.543544399E0,-4.150909781E-1,3.251829147E-1,3.824219704E-1
9.553544399E0,-1.571401060E-1,2.370185852E-1,3.399705887E-1
9.563544365E0,-1.242408752E-1,6.166934967E-2,1.481094360E-1
9.573544398E0,-1.318357736E-1,-7.599830627E-2,3.140449524E-2
9.583544431E0,-1.301978678E-1,-7.485008240E-2,2.975225449E-2
9.593544397E0,-1.289452463E-1,9.899711609E-2,8.273887634E-2
9.603544430E0,-1.241805106E-1,1.008377075E-1,8.014678955E-2
9.613544463E0,-2.085347623E-1,3.443527222E-1,3.626561165E-1
9.623543796E0,-2.038865089E-1,3.453226089E-1,3.613524437E-1
9.633543596E0,-2.156627029E-1,2.586774826E-1,1.299366951E-1
9.643542696E0,-1.906099766E-1,-6.415557861E-2,-8.255481720E-3
9.653542062E0,-1.206551045E-1,-1.064481735E-1,-1.279153824E-1
9.663541128E0,-1.201007515E-1,-1.070899963E-1,-1.269454956E-1
9.673540228E0,1.046273112E-1,2.353315353E-1,-1.533713341E-1
9.683539594E0,2.131758630E-1,1.210603714E-1,-1.424098015E-1
9.693539560E0,1.400673687E-1,3.094959259E-2,-1.820411682E-1
9.703538893E0,-1.461135149E-1,1.273088455E-1,-2.690782547E-1
9.713538893E0,-3.527258933E-1,1.963272095E-1,-2.563571930E-1
9.723538926E0,-1.920709014E-1,8.494853973E-2,-1.346421242E-1
9.733538992E0,-1.104877740E-1,-1.720991135E-1,-2.561616898E-2
9.743538958E0,-1.123868972E-1,-1.723279953E-1,-2.533054352E-2
9.753538924E0,-2.523367405E-1,-1.438264847E-1,-5.136775970E-2
9.763538957E0,-2.905135155E-1,1.590728760E-3,-7.437229156E-2
9.773538923E0,-2.272738814E-1,1.397819519E-1,-3.909587860E-3
9.783538923E0,-2.258154154E-1,1.393737793E-1,-3.271102905E-3
9.793538889E0,1.272979379E-2,9.393787384E-2,1.451458931E-1
9.803538922E0,1.189327240E-2,2.497768402E-2,1.851973534E-1
9.813538955E0,-1.481470764E-1,4.012203217E-2,2.846899033E-1
9.823538921E0,-1.438535452E-1,4.089355469E-2,2.836928368E-1
9.833538921E0,-1.910231262E-1,1.947784424E-1,4.073319435E-1
9.843538921E0,-1.993951201E-1,3.123102188E-1,3.256478310E-1
9.853538954E0,4.020129144E-2,2.926387787E-1,2.354435921E-1
9.863538987E0,3.927424550E-2,2.915964127E-1,2.369408607E-1
9.873538953E0,1.486494690E-1,2.021083832E-1,6.347894669E-2
9.883538953E0,4.677681625E-2,4.313335419E-1,6.443357468E-2
9.893538986E0,9.075944871E-2,4.911184311E-1,1.987380981E-1
9.903538952E0,9.489712864E-2,4.917678833E-1,1.979184151E-1
9.913538918E0,-1.427643001E-2,8.479595184E-2,2.243199348E-1
9.923539584E0,-1.865160465E-1,1.576423645E-1,6.363153458E-2
9.933539750E0,-7.308803499E-2,2.580137253E-1,-6.896543503E-2
9.943540616E0,3.174954951E-1,1.234817505E-1,-1.055140495E-1
9.953541249E0,4.808646739E-1,-2.357015610E-1,-1.594944000E-1
9.963542149E0,3.379352689E-1,-3.096446991E-1,-2.642273903E-1
9.973543049E0,4.983027279E-2,-8.629798889E-2,-3.574862480E-1
9.983543682E0,5.306231976E-2,-8.793163300E-2,-3.549256325E-1
9.993543715E0,-1.987470090E-1,3.198213577E-1,-3.283576965E-1
1.000354438E1,-1.845276356E-2,3.322296143E-1,2.892112732E-2
1.001354438E1,4.692555964E-2,-1.918492317E-1,-1.581096649E-2
1.002354431E1,4.588460922E-2,-1.939797401E-1,-1.266956329E-2
1.003354425E1,-1.043989062E-1,-2.413759232E-1,-2.755513191E-1
1.004354428E1,1.834372878E-1,-1.179761887E-1,-9.911680222E-2
1.005354431E1,2.942677736E-1,-7.928466797E-2,1.109428406E-1
1.006354428E1,9.304741770E-2,4.635906219E-2,8.758497238E-2
1.007354428E1,-2.734717727E-1,2.411384583E-1,-7.889318466E-2
1.008354434E1,-3.430607319E-1,2.726554871E-1,-1.129093170E-1
1.009354438E1,-1.931442320E-1,4.833602905E-2,-6.129026413E-2
1.010354431E1,-1.928263307E-1,4.955863953E-2,-6.310129166E-2
1.011354434E1,1.594091207E-1,-3.201432228E-1,-2.687168121E-2
1.012354438E1,1.599615663E-1,-3.191275597E-1,-2.836608887E-2
1.013354434E1,-1.396685839E-2,-3.716716766E-1,-1.123318672E-1
1.014354434E1,-2.500697374E-1,7.036781311E-2,-1.660346985E-1
1.015354431E1,-2.505944073E-1,6.867790222E-2,-1.635317802E-1
1.016354431E1,8.918862045E-2,1.839132309E-1,-1.222057343E-1
1.017354434E1,1.497160047E-1,-2.848844528E-1,-2.439713478E-1
1.018354431E1,-1.303161681E-1,-3.386774063E-1,-4.386229515E-1
1.019354431E1,-2.834004760E-1,-1.450901031E-1,-4.331340790E-1
1.020354434E1,-2.480629832E-1,1.134872437E-2,-2.090544701E-1
1.021354434E1,-2.269942462E-1,1.473445892E-1,1.210303307E-1
1.022354437E1,-2.252181023E-1,1.495866776E-1,1.177496910E-1
1.023354434E1,-1.682341546E-1,1.655330658E-1,2.949328423E-1
1.024354437E1,-2.191175520E-2,4.640674591E-2,1.263728142E-1
1.025354441E1,2.136192173E-1,-2.650117874E-1,4.029989243E-2
1.026354437E1,2.052740008E-1,-4.106693268E-1,-3.232288361E-2
1.027354437E1,-1.444171369E-2,-1.382999420E-1,-4.717874527E-2
1.028354440E1,-2.125323713E-1,4.102487564E-1,3.257417679E-2
1.029354437E1,-8.279576898E-2,5.951719284E-1,2.173147202E-1
1.030354437E1,3.358881176E-2,2.601051331E-1,2.710819244E-1
1.031354434E1,-5.968990922E-2,-2.127614021E-1,6.112718582E-2
1.032354437E1,-3.159808218E-1,-2.616314888E-1,-2.053894997E-1
1.033354440E1,-4.943548441E-1,-3.900241852E-2,-2.614116669E-1
1.034354437E1,-3.222844005E-1,8.786487579E-2,-8.285427094E-2
1.035354437E1,-6.396649778E-2,9.323596954E-2,1.999611855E-1
1.036354440E1,2.269487083E-2,-6.322288513E-2,1.937518120E-1
1.037354440E1,-2.117871046E-1,5.626678467E-3,1.958465576E-2
1.038354434E1,-2.156124264E-1,5.375862122E-3,1.982307434E-2
1.039354430E1,-4.961904883E-2,1.835250854E-1,2.787780762E-2
1.040354433E1,1.255502701E-1,1.551485062E-1,1.577930450E-1
1.041354427E1,1.917132437E-1,5.618572235E-2,2.547712326E-1
1.042354427E1,1.933402568E-1,6.013965607E-2,2.489604950E-1
1.043354430E1,-2.280502021E-1,1.250782013E-1,1.780943871E-1
1.044354430E1,-2.073411494E-1,3.149499893E-1,2.442884445E-1
1.045354430E1,-1.532797664E-1,6.000843048E-1,3.696556091E-1
1.046354427E1,-1.565937847E-1,5.960674286E-1,3.754982948E-1
1.047354430E1,3.301891983E-1,7.007017136E-1,3.643007278E-1
1.048354433E1,1.934091598E-1,6.252603531E-1,2.318234444E-1
1.049354433E1,-1.744812727E-2,7.060489655E-1,2.566580772E-1
1.050354430E1,-1.380100846E-2,7.023677826E-1,2.622976303E-1
1.051354433E1,-6.261290610E-2,8.609924316E-1,6.434087753E-1
1.052354430E1,9.032770991E-2,8.075037003E-1,6.758403778E-1
1.053354430E1,9.068192542E-2,8.063077927E-1,6.776375771E-1
1.054354426E1,1.119118407E-1,7.447185516E-1,5.987505913E-1
1.055354426E1,3.012198210E-1,3.315534592E-1,3.851370811E-1
1.056354430E1,2.953096032E-1,3.312873840E-1,3.853325844E-1
1.057354426E1,3.223146498E-1,-4.148101807E-2,4.271273613E-1
1.058354430E1,3.154253960E-1,-3.984546661E-2,4.244384766E-1
1.059354433E1,-9.836730361E-2,1.906681061E-2,1.347355843E-1
1.060354433E1,-1.919879168E-1,-1.147460938E-2,2.118682861E-2
1.061354436E1,-1.114636511E-1,-9.059906006E-2,-1.056356430E-1
1.062354366E1,-8.007919788E-2,-2.204942703E-1,-2.029466629E-1
1.063354319E1,-1.765280962E-1,-3.650197983E-1,-2.998089790E-1
1.064354236E1,-2.596943974E-1,-4.375576973E-1,-2.890834808E-1
1.065354166E1,-3.377023339E-1,-4.691801071E-1,-2.786526680E-1
1.066354166E1,-3.690696955E-1,-4.309759140E-1,-3.023800850E-1
1.067354079E1,-2.918581963E-1,-4.187588692E-1,-3.338508606E-1
1.068354046E1,-1.081643254E-1,-4.804797173E-1,-3.131208420E-1
1.069354049E1,2.819375694E-2,-5.773782730E-1,-2.911424637E-1
1.070354053E1,8.706804365E-2,-5.631079674E-1,-2.563943863E-1
1.071354059E1,9.215667844E-2,-6.649956703E-1,-1.850070953E-1
1.072354059E1,9.214009345E-2,-6.608099937E-1,-1.912755966E-1
1.073354056E1,-1.132545620E-1,-5.850071907E-1,-2.330493927E-1
1.074354056E1,-1.528996676E-1,-4.072732925E-1,-3.043985367E-1
1.075354056E1,-1.604637504E-2,-3.051371574E-1,-4.120149612E-1
1.076354059E1,1.356070340E-1,-3.360633850E-1,-5.463566780E-1
1.077354052E1,2.504338920E-1,-3.705878258E-1,-7.031807899E-1
1.078354049E1,2.579747438E-1,-3.602409363E-1,-7.390522957E-1
1.079354049E1,2.399764061E-1,-2.661108971E-1,-6.527814865E-1
1.080354049E1,2.410899997E-1,-2.125120163E-1,-5.568766594E-1
1.081354046E1,2.413438261E-1,-2.137317657E-1,-5.550556183E-1
1.082353979E1,1.782099903E-1,-2.645888329E-1,-2.693028450E-1
1.083353985E1,1.715554148E-1,-3.197336197E-1,-2.333302498E-1
1.084353989E1,2.165473104E-1,-2.928519249E-1,-2.318415642E-1
1.085353985E1,2.081402093E-1,-1.457929611E-1,-1.783943176E-1
1.086353989E1,2.042604387E-1,-1.442222595E-1,-1.808495522E-1
1.087353992E1,2.469466180E-1,-3.663635254E-2,1.204824448E-2
1.088353985E1,1.260031164E-1,1.812572479E-1,8.023595810E-2
1.089353985E1,4.618674517E-3,4.373493195E-1,-9.555387497E-2
1.090353985E1,6.745141745E-2,4.745092392E-1,-3.268623352E-2
1.091353985E1,2.894214094E-1,2.924537659E-1,9.214687347E-2
1.092354055E1,3.138562441E-1,1.125392914E-1,2.533106804E-1
1.093354098E1,1.634075493E-1,1.625919342E-1,3.903555870E-1
1.094354185E1,-5.223454535E-2,3.541412354E-1,5.198588371E-1
1.095354255E1,-1.490330547E-1,4.907703400E-1,6.347675323E-1
1.096354252E1,-1.823947132E-1,5.438594818E-1,6.390209198E-1
1.097354342E1,-1.847284138E-1,5.443429947E-1,6.382179260E-1
1.098354375E1,3.702500463E-2,5.211801529E-1,3.591346741E-1
1.099354375E1,2.406112105E-1,3.217744827E-1,3.012914658E-1
1.100354372E1,3.526057601E-1,1.299228668E-1,2.896900177E-1
1.101354365E1,2.311615348E-1,8.081722260E-2,2.999534607E-1
1.102354365E1,2.339776903E-1,8.735275269E-2,2.903923988E-1
1.103354368E1,-3.338884711E-1,6.316261292E-1,2.991371155E-1
1.104354368E1,-4.424090385E-1,7.309103012E-1,3.445415497E-1
1.105354368E1,-2.281349599E-1,5.887098312E-1,2.420444489E-1
1.106354365E1,-1.825254261E-1,3.367176056E-1,2.693614960E-1
1.107354368E1,-1.723968387E-1,5.237865448E-2,2.145996094E-1
1.108354371E1,-2.136486620E-1,5.677318573E-2,5.348443985E-2
1.109354368E1,-3.690183163E-1,1.108951569E-1,9.433460236E-2
1.110354371E1,-2.632163465E-1,-3.773880005E-2,1.484556198E-1
1.111354375E1,-3.033233285E-1,-1.751813889E-1,3.365640640E-1
1.112354441E1,-3.045303524E-1,-1.748228073E-1,3.359899521E-1
1.113354434E1,-3.613330722E-1,-4.236602783E-2,2.486863136E-1
1.114354431E1,-3.594502211E-1,-4.143619537E-2,2.473759651E-1
1.115354434E1,-2.448459417E-1,-1.359314919E-1,2.934532166E-1
1.116354428E1,-3.515844941E-1,2.526321411E-1,1.884293556E-1
1.117354424E1,-1.979226172E-1,5.416431427E-1,-6.434059143E-2
1.118354428E1,-7.074607909E-2,5.866851807E-1,-4.592943192E-2
1.119354424E1,-2.870506048E-2,2.921209335E-1,-9.263610840E-2
1.120354424E1,1.029548049E-2,1.241579056E-1,-2.153358459E-1
1.121354421E1,1.618792415E-1,1.347255707E-2,-2.406635284E-1
1.122354424E1,1.786344349E-1,9.160041809E-3,-2.335252762E-1
1.123354427E1,1.163855195E-3,-3.384017944E-2,8.038759232E-2
1.124354424E1,9.907275438E-3,-2.997970581E-2,7.499408722E-2
1.125354421E1,-2.980263829E-1,1.566352844E-1,5.485768318E-1
1.126354424E1,-2.434224486E-1,3.983821869E-1,6.320757866E-1
1.127354420E1,2.839787900E-1,4.675827026E-1,5.279865265E-1
1.128354420E1,4.538264275E-1,6.977939606E-2,5.361819267E-1
1.129354417E1,4.077247083E-1,-3.115110397E-1,2.678313255E-1
1.130354417E1,1.044585705E-1,-3.550128937E-1,3.700590134E-2
1.131354420E1,-5.240322649E-2,8.945465088E-4,-1.557617188E-1
1.132354417E1,-4.875025153E-2,-2.822875977E-3,-1.502079964E-1
1.133354420E1,-5.587098002E-2,6.070928574E-1,-1.639242172E-1
1.134354424E1,1.123294234E-2,4.337215424E-1,-1.532282829E-1
1.135354424E1,-7.980270684E-2,6.866836548E-2,-1.494879723E-1
1.136354427E1,-7.962431014E-2,6.526660919E-2,-1.445093155E-1
1.137354424E1,-2.542705536E-1,-4.382915497E-1,-1.433591843E-1
1.138354424E1,-2.296817899E-1,-3.407392502E-1,-9.816455841E-2
1.139354427E1,-1.616870761E-1,-1.262154579E-1,-4.647922516E-2
1.140354423E1,-1.651964784E-1,-1.211752892E-1,-5.397415161E-2
1.141354423E1,-1.978826076E-1,1.617622375E-1,-8.316755295E-2
1.142354427E1,-1.960925162E-1,1.662130356E-1,-8.955764771E-2
1.143354427E1,1.498095989E-1,-1.654524803E-1,-1.424012184E-1
1.144354427E1,2.149021775E-1,-4.521603584E-1,-1.849122047E-1
1.145354423E1,1.310633123E-2,-6.278929710E-1,-2.562413216E-1
1.146354430E1,-2.640411854E-1,-5.560536385E-1,-3.422179222E-1
1.147354433E1,-4.798299372E-1,-2.915744781E-1,-3.952302933E-1
1.148354430E1,-4.564931393E-1,-6.212234497E-3,-4.114732742E-1
1.149354433E1,-3.298059106E-1,1.517896652E-1,-3.313908577E-1
1.150354436E1,-1.385801733E-1,1.264953613E-2,-2.604889870E-1
1.151354436E1,1.067826152E-2,-3.246841431E-1,-1.926903725E-1
1.152354430E1,7.929188013E-2,-5.504684448E-1,-2.226758003E-1
1.153354426E1,5.324035883E-2,-6.387534142E-1,-2.469224930E-1
1.154354430E1,5.718323588E-2,-6.376814842E-1,-2.482976913E-1
1.155354430E1,-2.126978040E-1,-7.602787018E-2,-1.807703972E-1
1.156354426E1,-2.299588919E-1,2.699022293E-1,-8.180952072E-2
1.157354430E1,2.687591314E-2,2.343788147E-1,5.652666092E-2
1.158354433E1,2.509045601E-2,2.343521118E-1,5.647659302E-2
1.159354433E1,1.793483496E-1,-3.306293488E-1,1.998686790E-1
1.160354429E1,5.844494700E-2,-2.348942757E-1,5.609416962E-2
1.161354433E1,-1.292881370E-2,1.383256912E-1,-1.399173737E-1
1.162354369E1,-1.268079877E-2,1.381282806E-1,-1.396183968E-1
1.163354296E1,1.368703991E-1,2.881050110E-1,-1.201367378E-1
1.164354226E1,2.458876371E-1,1.897344589E-1,-1.047945023E-2
1.165354162E1,2.271321714E-1,2.454757690E-3,3.962516785E-3
1.166354072E1,7.839009166E-2,1.017074585E-1,3.146648407E-2
1.167354072E1,1.309534907E-2,1.735477448E-1,5.320644379E-2
1.168354003E1,7.097552717E-2,1.317977905E-1,7.629394531E-2
1.169354002E1,6.010274589E-2,1.279163361E-2,4.024124146E-2
1.170353939E1,5.315048993E-2,1.097011566E-2,4.252004623E-2
1.171353939E1,-7.401219010E-2,3.636970520E-1,-1.901454926E-1
1.172353942E1,8.439421654E-2,4.565944672E-1,-1.538653374E-1
1.173353909E1,3.321580291E-1,3.567314148E-1,1.441102028E-1
1.174353886E1,3.758565784E-1,3.398799896E-2,3.719997406E-1
1.175353889E1,1.047708988E-1,-1.293201447E-1,3.897056580E-1
1.176353882E1,-2.902136743E-1,8.542060852E-2,3.026785851E-1
1.177353882E1,-5.235400796E-1,5.789976120E-1,2.440333366E-1
1.178353886E1,-5.165683031E-1,5.802173615E-1,2.426099777E-1
1.179353882E1,-1.422502995E-1,9.347915649E-1,4.411525726E-1
1.180353879E1,1.205827892E-1,6.638669968E-1,4.943518639E-1
1.181353879E1,3.824476898E-1,9.054279327E-2,4.551682472E-1
1.182353845E1,3.831079602E-1,8.941841125E-2,4.568271637E-1
1.183353849E1,7.012397051E-3,-1.315131187E-1,2.615728378E-1
1.184353845E1,-1.144314706E-1,3.806409836E-1,3.147001266E-1
1.185353848E1,1.939776540E-2,6.942567825E-1,4.608988762E-1
1.186353852E1,2.025505900E-2,6.939945221E-1,4.613113403E-1
1.187353848E1,4.826998711E-2,2.234439850E-1,1.424398422E-1
1.188353845E1,-6.206580997E-2,2.888298035E-2,-1.593999863E-1
1.189353845E1,-1.004348993E-1,-1.671161652E-1,-3.560700417E-1
1.190353848E1,-9.484988451E-2,-1.714982986E-1,-3.493981361E-1
1.191353842E1,1.064296514E-1,-1.629834175E-1,-3.897352219E-1
1.192353905E1,1.062759906E-1,-1.658406258E-1,-3.855805397E-1
1.193353975E1,1.847561300E-1,1.973152161E-3,-3.514609337E-1
1.194354042E1,1.594418734E-1,-1.124358177E-1,-2.292041779E-1
1.195354105E1,1.368883103E-1,-2.042460442E-1,-1.204442978E-1
1.196354191E1,1.340770572E-1,-2.039475441E-1,-1.210279465E-1
1.197354198E1,4.654312134E-2,-2.867670059E-1,-7.463598251E-2
1.198354268E1,4.737111926E-2,-2.853746414E-1,-7.662725449E-2
1.199354265E1,-2.824883461E-1,-3.875112534E-1,-1.518788338E-1
1.200354328E1,-3.587208390E-1,-2.464017868E-1,-2.736120224E-1
1.201354328E1,-2.395921350E-1,-7.030963898E-2,-3.054566383E-1
1.202354321E1,-2.401534617E-1,-7.181739807E-2,-3.032979965E-1
1.203354354E1,5.081057549E-1,-3.676414490E-1,-2.344942093E-1
1.204354378E1,3.642584085E-1,-5.432944298E-1,-1.161642075E-1
1.205354381E1,3.424313664E-2,-4.644184113E-1,-7.059764862E-2
1.206354384E1,3.505566716E-2,-4.641056061E-1,-7.101297379E-2
1.207354381E1,-3.080023527E-1,9.892940521E-2,-2.600669861E-2
1.208354384E1,-3.291267753E-1,2.262973785E-1,3.078079224E-2
1.209354388E1,-1.788254082E-1,-2.690410614E-2,7.540130615E-2
1.210354388E1,-1.794883311E-1,-2.645587921E-2,7.470417023E-2
1.211354391E1,-5.645039678E-2,-4.714269638E-1,-8.616352081E-2
1.212354424E1,-1.328848898E-1,-3.228244781E-1,-4.795980453E-2
1.213354424E1,-1.248548031E-1,4.103279114E-2,4.972457886E-3
1.214354428E1,-4.776877165E-2,2.772932053E-1,-1.351447105E-1
1.215354424E1,-1.570302844E-1,4.343814850E-1,-1.136178970E-1
1.216354424E1,7.517294586E-2,4.122257233E-1,-1.512279510E-1
1.217354427E1,3.660097420E-1,-1.111602783E-2,-1.821045876E-1
1.218354427E1,3.582535088E-1,-3.740434647E-1,-1.873989105E-1
1.219354427E1,1.369917244E-1,-6.615419388E-1,-2.805533409E-1
1.220354424E1,-8.580157161E-2,-5.909485817E-1,-3.228321075E-1
1.221354427E1,-1.921876073E-1,-3.037247658E-1,-2.278480530E-1
1.222354431E1,-1.872100830E-1,-3.046946526E-1,-2.261347771E-1
1.223354427E1,1.603543460E-1,-1.132078171E-1,3.506851196E-2
1.224354430E1,1.622641385E-1,-1.133728027E-1,3.542327881E-2
1.225354434E1,1.905793101E-1,-2.632031441E-1,-3.023948669E-1
1.226354434E1,8.623147011E-2,-3.240542412E-1,-4.574351311E-1
1.227354427E1,-7.691273093E-2,-3.903217316E-1,-4.845991135E-1
1.228354424E1,1.382893324E-2,-3.465862274E-1,-4.015460014E-1
1.229354427E1,-7.846185565E-2,-1.202630997E-1,-2.454042435E-1
1.230354427E1,-2.258835137E-1,2.094621658E-1,-2.744374275E-1
1.231354424E1,-1.024344265E-1,2.998952866E-1,-3.227901459E-1
1.232354427E1,1.134002358E-1,2.470779419E-1,-2.351932526E-1
1.233354430E1,3.731147647E-1,2.142906189E-2,3.631448746E-2
1.234354430E1,3.753866553E-1,2.393913269E-2,3.270864487E-2
1.235354424E1,-2.414345741E-3,-1.438446045E-1,3.901128769E-1
1.236354427E1,-2.784743607E-1,3.169069290E-1,2.249670029E-1
1.237354430E1,-1.777137518E-1,8.515815735E-1,1.523280144E-1
1.238354423E1,1.463221312E-1,8.505535126E-1,3.310718536E-1
1.239354420E1,4.898222089E-1,5.015935898E-1,3.646330833E-1
1.240354423E1,4.743811190E-1,3.354597092E-1,3.165411949E-1
1.241354420E1,2.549605966E-1,2.662029266E-1,1.100955009E-1
1.242354420E1,1.037980318E-1,3.300600052E-1,-9.947299957E-2
1.243354416E1,5.762666464E-3,4.706783295E-1,9.375095367E-3
1.244354416E1,-2.466216683E-2,6.219720840E-1,1.968407631E-1
1.245354420E1,-1.077432334E-1,8.566303253E-1,4.076938629E-1
1.246354416E1,-7.429927588E-2,9.008359909E-1,5.140595436E-1
1.247354420E1,1.726826131E-1,6.529750824E-1,6.084723473E-1
1.248354423E1,2.731584609E-1,2.995920181E-1,6.145300865E-1
1.249354423E1,1.382917017E-1,1.345148087E-1,5.332303047E-1
1.250354423E1,1.413727552E-1,1.333827972E-1,5.351219177E-1
1.251354420E1,1.644242406E-1,4.410982132E-1,9.042406082E-2
1.252354420E1,1.628175974E-1,4.350423813E-1,9.942007065E-2
1.253354423E1,1.689901799E-1,5.048961639E-1,1.403412819E-1
1.254354420E1,2.127835453E-1,2.976026535E-1,2.665600777E-1
1.255354420E1,1.504239291E-1,-6.380653381E-2,4.000458717E-1
1.256354423E1,-1.297411323E-2,-2.774438858E-1,3.802194595E-1
1.257354423E1,-2.574396133E-1,-2.022876740E-1,3.008503914E-1
1.258354426E1,-3.177083433E-1,9.374618530E-4,2.557716370E-1
1.259354423E1,-2.671048045E-1,2.265367508E-1,2.477722168E-1
1.260354426E1,-1.592917740E-1,2.633218765E-1,3.230695724E-1
1.261354429E1,9.264183044E-2,-1.522102356E-1,2.448811531E-1
1.262354359E1,9.157750010E-2,-1.532478333E-1,2.463889122E-1
1.263354293E1,7.346364856E-2,-6.940221786E-1,-2.700796127E-1
1.264354229E1,-1.562119424E-1,-6.619381905E-1,-5.184907913E-1
1.265354142E1,-2.104244530E-1,-3.441967964E-1,-5.487065315E-1
1.266354069E1,-2.181792557E-1,-3.496270180E-1,-5.409016609E-1
1.267353999E1,-2.989031076E-1,1.703739166E-1,-3.813028336E-1
1.268354002E1,-3.263323903E-1,2.103986740E-1,-2.117543221E-1
1.269353936E1,-1.067936122E-1,-6.217479706E-2,-1.775574684E-1
1.270353899E1,-1.050095856E-1,-6.334877014E-2,-1.756529808E-1
1.271353832E1,-4.254317284E-2,-6.064829826E-1,-2.189807892E-1
1.272353839E1,-1.821821630E-1,-5.700159073E-1,-2.984561920E-1
1.273353842E1,-2.166540027E-1,-1.650400162E-1,-3.608622551E-1
1.274353842E1,-2.131308317E-1,-1.646966934E-1,-3.611602783E-1
1.275353839E1,-8.487144113E-2,3.862848282E-1,-2.609996796E-1
1.276353842E1,-8.910050988E-2,4.026365280E-1,-1.190853119E-1
1.277353835E1,6.280300021E-2,2.559528351E-1,9.984064102E-2
1.278353832E1,6.352949142E-2,2.560901642E-1,9.966564178E-2
1.279353832E1,-7.969409227E-2,-2.069711685E-1,3.513202667E-1
1.280353835E1,-3.693746328E-1,1.201839447E-1,3.609280586E-1
1.281353839E1,-4.085485637E-1,6.983442307E-1,3.257346153E-1
1.282353835E1,-7.889398932E-2,1.005200386E0,3.060784340E-1
1.283353838E1,2.586670816E-1,7.752494812E-1,4.020037651E-1
1.284353842E1,3.857282698E-1,4.664382935E-1,4.642043114E-1
1.285353838E1,2.017861009E-1,2.721128464E-1,4.554085732E-1
1.286353838E1,2.063658237E-1,2.703552246E-1,4.583988190E-1
1.287353838E1,4.919797182E-2,3.987617493E-1,2.122578621E-1
1.288353838E1,2.329087257E-2,4.040031433E-1,2.883753777E-1
1.289353842E1,-8.627709746E-2,4.910631180E-1,4.162278175E-1
1.290353838E1,-9.169480205E-2,4.873428345E-1,4.216074944E-1
1.291353838E1,4.138539135E-1,6.427459717E-1,3.715853691E-1
1.292353908E1,4.091483653E-1,6.367053986E-1,3.806324005E-1
1.293353972E1,6.210255027E-1,-9.242439270E-2,4.267549515E-2
1.294354035E1,1.672090441E-1,-4.099755287E-1,-7.282614708E-1
1.295354122E1,-1.126340926E-1,-3.364119530E-1,-1.203815937E0
1.296354192E1,-3.585323393E-1,-1.574316025E-1,-1.122766018E0
1.297354262E1,-4.509611130E-1,-4.765415192E-2,-5.230550766E-1
1.298354258E1,-4.429222345E-1,-4.210090637E-2,-5.311560631E-1
1.299354325E1,-1.360145211E-1,-2.206830978E-1,7.157545090E-1
1.300354358E1,-8.649975061E-3,-3.641648293E-1,9.144873619E-1
1.301354428E1,-4.127532244E-2,-3.004283905E-1,9.265937805E-1
1.302354421E1,-6.122508645E-2,-3.003673553E-1,9.250993729E-1
1.303354418E1,1.310051680E-1,-1.629247665E-1,8.177423477E-2
1.304354418E1,1.024706960E-1,-2.565674782E-1,-5.118694305E-1
1.305354418E1,-2.703770697E-1,-2.871608734E-2,-8.626527786E-1
1.306354414E1,-2.054866254E-1,-1.721096039E-2,-8.153915405E-1
1.307354414E1,-4.738986492E-3,-3.693346977E-1,-5.041399002E-1
1.308354421E1,-7.173150778E-3,-3.644700050E-1,-5.118961334E-1
1.309354424E1,-2.842201591E-1,-5.076794624E-1,4.155349731E-2
1.310354421E1,-2.812514305E-1,-4.997181892E-1,2.927732468E-2
1.311354424E1,-9.617269039E-2,5.226716995E-1,1.114306450E-1
1.312354428E1,1.186573207E-1,6.597156525E-1,1.399617195E-1
1.313354421E1,2.700670958E-1,3.426895142E-1,1.384491920E-1
1.314354421E1,2.306031883E-1,1.690483093E-2,1.981439590E-1
1.315354421E1,9.702910483E-2,-2.291712761E-1,1.205682755E-1
1.316354421E1,-7.149103284E-2,-2.004723549E-1,3.237724304E-3
1.317354424E1,-2.403457463E-1,1.123313904E-1,-2.184629440E-2
1.318354421E1,-3.051766753E-1,2.669801712E-1,-1.243114471E-3
1.319354421E1,-1.928144097E-1,3.115148544E-1,2.484321594E-3
1.320354424E1,9.387850761E-3,1.163311005E-1,-2.928256989E-3
1.321354421E1,9.027743340E-2,-1.390523911E-1,3.535175323E-2
1.322354421E1,9.178122878E-2,-1.312303543E-1,2.373266220E-2
1.323354421E1,3.863060474E-2,-2.460384369E-1,1.782703400E-1
1.324354424E1,-7.938417792E-2,-5.297279358E-2,1.835846901E-1
1.325354427E1,-1.447591782E-1,2.668638229E-1,1.160359383E-1
1.326354424E1,-1.378073394E-1,4.677362442E-1,1.733303070E-2
1.327354420E1,-1.390495598E-1,6.147050858E-1,-1.155190468E-1
1.328354420E1,-1.353774071E-1,6.150913239E-1,-1.158876419E-1
1.329354424E1,3.966668248E-2,2.639675140E-1,5.543470383E-2
1.330354424E1,4.063501954E-2,2.656030655E-1,5.305480957E-2
1.331354420E1,4.090440273E-2,-3.979806900E-1,7.018566132E-3
1.332354424E1,4.180613160E-2,-3.962888718E-1,4.567146301E-3
1.333354427E1,-2.251107693E-1,-1.099233627E-1,-2.249627113E-1
1.334354424E1,-2.421072125E-1,1.507415771E-1,-2.328591347E-1
1.335354424E1,-2.083289623E-2,2.408084869E-1,-1.302986145E-1
1.336354430E1,2.330159992E-1,-6.077194214E-2,-1.385879517E-2
1.337354434E1,2.337850183E-1,-6.295228004E-1,6.476974487E-2
1.338354427E1,3.085628152E-2,-9.813232422E-1,-7.303762436E-2
1.339354427E1,-2.730711699E-1,-9.237756729E-1,-3.172783852E-1
1.340354430E1,-4.013188779E-1,-5.498394966E-1,-5.211129189E-1
1.341354423E1,-3.021818399E-1,-9.033870697E-2,-6.176843643E-1
1.342354420E1,5.046695471E-3,-6.375312805E-3,-4.603695869E-1
1.343354420E1,2.355365455E-1,-4.487881660E-1,-2.693295479E-1
1.344354420E1,9.194961190E-2,-7.180123329E-1,-2.294192314E-1
1.345354423E1,-2.313247919E-1,-6.580362320E-1,-3.252282143E-1
1.346354420E1,-2.261479497E-1,-6.587171555E-1,-3.238654137E-1
1.347354420E1,-2.462766171E-1,-4.532842636E-1,-3.995370865E-1
1.348354420E1,-2.817704082E-1,-4.188041687E-1,-3.123340607E-1
1.349354420E1,-2.374376953E-1,-1.724514961E-1,-2.629194260E-1
1.350354420E1,-2.379063368E-1,-1.701540947E-1,-2.663545609E-1
1.351354420E1,1.764768511E-1,-2.613487244E-1,-2.408313751E-1
1.352354420E1,1.775276512E-1,-2.583370209E-1,-2.452001572E-1
1.353354423E1,5.170696974E-2,-5.062971115E-1,-1.137199402E-1
1.354354420E1,5.348241329E-2,-5.036821365E-1,-1.174411774E-1
1.355354416E1,-1.141910553E-1,1.586122513E-1,-4.570641518E-1
1.356354416E1,-1.117218733E-1,1.597585678E-1,-4.585862160E-1
1.357354420E1,2.260279655E-2,4.221534729E-1,-2.569947243E-1
1.358354423E1,2.770495415E-2,4.699096680E-1,-3.747463226E-2
1.359354420E1,1.502796113E-1,2.909011841E-1,1.762714386E-1
1.360354423E1,2.861635089E-1,-4.734325409E-2,2.924561501E-1
1.361354426E1,1.137009859E-1,-3.822636604E-1,1.916832924E-1
1.362354356E1,1.136109531E-1,-3.776612282E-1,1.849546432E-1
1.363354286E1,4.049035907E-2,-3.764457703E-1,7.665395737E-2
1.364354200E1,-6.578975916E-2,-4.786968231E-2,-2.104110718E-1
1.365354186E1,3.000966609E-1,6.351556778E-1,-1.601810455E-1
1.366354093E1,5.099787712E-1,4.299373627E-1,6.002521515E-2
1.367354093E1,3.192394078E-1,1.423740387E-2,2.920155525E-1
1.368354036E1,-4.602578282E-2,-2.660989761E-1,3.333501816E-1
1.369354033E1,-4.367884696E-1,-5.320167542E-2,2.026519775E-1
1.370354029E1,-4.314858913E-1,-5.107498169E-2,1.999397278E-1
1.371353963E1,-1.373577118E-1,5.730733871E-1,3.339948654E-1
1.372353892E1,7.935717702E-2,5.077581406E-1,3.911123276E-1
1.373353896E1,1.686117947E-1,1.892318726E-1,4.737186432E-1
1.374353896E1,4.514670372E-2,-1.212348938E-1,5.049753189E-1
1.375353896E1,-7.496282458E-2,-2.842602730E-1,5.895309448E-1
1.376353896E1,-2.987841070E-1,-6.253051758E-2,5.855879784E-1
1.377353896E1,-3.888833821E-1,3.128757477E-1,5.404691696E-1
1.378353899E1,-3.827877045E-1,3.180780411E-1,5.334730148E-1
1.379353896E1,-1.835842729E-1,5.074310303E-1,6.760087013E-1
1.380353896E1,-2.318861187E-1,7.114152908E-1,6.634864807E-1
1.381353899E1,4.312106967E-2,6.895713806E-1,5.980477333E-1
1.382353896E1,4.345333576E-2,6.839952469E-1,6.060338020E-1
1.383353899E1,2.159727216E-1,-1.372189522E-1,3.456087112E-1
1.384353902E1,-1.521977782E-1,-1.502895355E-2,1.831164360E-1
1.385353902E1,-3.957760036E-1,5.929098129E-1,4.020786285E-2
1.386353906E1,-5.463889241E-2,8.861398697E-1,9.506320953E-2
1.387353902E1,1.803919673E-1,8.470153809E-1,2.902083397E-1
1.388353902E1,3.732255399E-1,4.749898911E-1,4.930448532E-1
1.389353905E1,2.776898146E-1,6.934165955E-3,4.657402039E-1
1.390353902E1,2.748559117E-1,1.245880127E-2,4.575486183E-1
1.391353899E1,-2.641430795E-1,5.484867096E-2,4.980611801E-2
1.392353965E1,-3.107425869E-1,5.150766373E-1,3.307962418E-2
1.393354035E1,-1.121117473E-1,9.739542007E-1,1.964712143E-1
1.394354122E1,1.588948667E-1,1.010235786E0,3.613219261E-1
1.395354135E1,3.829731643E-1,7.411003113E-1,5.111117363E-1
1.396354228E1,4.663450718E-1,3.500051498E-1,4.856429100E-1
1.397354228E1,2.559531927E-1,8.923339844E-2,3.074321747E-1
1.398354285E1,3.539302945E-2,5.328655243E-2,1.235513687E-1
1.399354285E1,-1.579078138E-1,1.797285080E-1,9.269905090E-2
1.400354285E1,-1.846925616E-1,2.988510132E-1,1.788277626E-1
1.401354355E1,-9.881854057E-3,2.937135696E-1,2.923836708E-1
1.402354425E1,-1.070833206E-2,3.042020798E-1,2.773895264E-1
1.403354422E1,2.635295689E-1,-3.504085541E-2,3.442244530E-1
1.404354422E1,3.581194580E-1,-1.295814514E-1,2.271933556E-1
1.405354418E1,3.551032841E-1,-2.152791023E-1,1.168060303E-2
1.406354418E1,3.567530811E-1,-2.148218155E-1,1.113700867E-2
1.407354415E1,5.720439553E-2,-1.568369865E-1,-1.418709755E-1
1.408354418E1,5.732968450E-2,-1.602435112E-1,-1.370515823E-1
1.409354421E1,1.467585564E-2,1.655521393E-1,-1.448717117E-1
1.410354418E1,1.247369647E-1,-7.609605789E-2,-1.048197746E-1
1.411354421E1,3.237298131E-2,-5.179924965E-1,-3.478765488E-2
1.412354425E1,3.511595726E-2,-5.205006599E-1,-3.106737137E-2
1.413354418E1,-4.620549083E-1,-7.565279007E-1,-9.832000732E-2
1.414354414E1,-4.597315192E-1,-7.573928833E-1,-9.694623947E-2
1.415354414E1,-3.302539289E-1,-2.551531792E-1,-1.344709396E-1
1.416354415E1,-1.140388250E-1,-1.238007545E-1,-5.284500122E-2
1.417354418E1,8.120894432E-2,-1.875109673E-1,-1.032428741E-1
1.418354414E1,9.028366208E-2,-1.830277443E-1,-1.090025902E-1
1.419354411E1,1.696576327E-1,-7.618894577E-1,-3.633565903E-1
1.420354411E1,1.696459204E-1,-7.619333267E-1,-3.633017540E-1
1.421354414E1,-9.293845296E-2,-6.243419647E-1,-6.129975319E-1
1.422354418E1,-1.619684696E-1,-3.217000961E-1,-5.957608223E-1
1.423354414E1,-1.501733661E-1,-1.346392632E-1,-5.919790268E-1
1.424354418E1,-6.666368246E-2,-5.818414688E-2,-4.772305489E-1
1.425354421E1,6.207391620E-2,-9.032249451E-3,-3.177113533E-1
1.426354414E1,6.754437089E-2,-1.613712311E-2,-3.072066307E-1
1.427354411E1,2.293873131E-1,-3.009285927E-1,-2.342629433E-1
1.428354411E1,1.456259489E-1,-3.736810684E-1,-3.632531166E-1
1.429354414E1,9.470257163E-2,-3.709321022E-1,-5.026636124E-1
1.430354414E1,9.633430839E-2,-3.757195473E-1,-4.956822395E-1
1.431354411E1,1.343167126E-1,-1.144881248E-1,-6.401915550E-1
1.432354414E1,2.907278240E-1,-5.348587036E-2,-5.276594162E-1
1.433354417E1,4.489972591E-1,-2.303671837E-1,-3.744211197E-1
1.434354414E1,3.586635888E-1,-4.203186035E-1,-2.480149269E-1
1.435354414E1,9.108531475E-2,-4.163856506E-1,-1.988859177E-1
1.436354420E1,9.285756946E-2,-4.111776352E-1,-2.062592506E-1
1.437354424E1,-1.471201777E-1,-1.110095978E-1,-2.091827393E-1
1.438354417E1,-1.387738883E-1,-1.053094864E-1,-2.167773247E-1
1.439354417E1,-1.840791106E-1,2.663116455E-1,-1.448531151E-1
1.440354417E1,-1.002831757E-1,4.479017258E-1,2.873992920E-2
1.441354414E1,3.055879474E-2,4.515857697E-1,1.792311668E-1
1.442354414E1,5.305019021E-2,3.257331848E-1,3.107066154E-1
1.443354414E1,-9.105440974E-2,2.413911819E-1,3.763170242E-1
1.444354417E1,-1.863138974E-1,3.018026352E-1,3.279113770E-1
1.445354420E1,-6.216916442E-2,5.667090416E-1,4.552316666E-1
1.446354417E1,-6.599766016E-2,5.748510361E-1,4.434995651E-1
1.447354417E1,1.923656166E-1,6.340270042E-1,6.630554199E-1
1.448354417E1,3.232795000E-1,4.257736206E-1,8.099312782E-1
1.449354423E1,2.425906509E-1,3.139176369E-1,7.956790924E-1
1.450354427E1,2.470239252E-1,3.234395981E-1,7.827234268E-1
1.451354423E1,-5.897387862E-2,4.410195351E-1,1.888928413E-1
1.452354423E1,-1.383057535E-1,6.690387726E-1,1.345710754E-1
1.453354427E1,-1.258806288E-1,6.749858856E-1,1.272535324E-1
1.454354423E1,-9.336709976E-3,8.350143433E-1,2.861223221E-1
1.455354420E1,2.499129176E-1,3.821406364E-1,6.769914627E-1
1.456354420E1,1.815288365E-1,5.269002914E-2,6.526274681E-1
1.457354423E1,-2.202346921E-2,6.546974182E-3,4.412407875E-1
1.458354426E1,-2.094429731E-2,9.225845337E-3,4.376659393E-1
1.459354423E1,-1.626148820E-1,4.946260452E-1,1.957864761E-1
1.460354426E1,-7.591387630E-2,6.689219475E-1,3.295030594E-1
1.461354430E1,1.825380027E-1,5.801301003E-1,4.532175064E-1
1.462354360E1,1.816284955E-1,5.813312531E-1,4.515118599E-1
1.463354290E1,3.013409972E-1,-4.749541283E-1,3.828692436E-1
1.464354203E1,3.381749988E-2,-5.991754532E-1,1.491408348E-1
1.465354140E1,-1.101042926E-1,-2.390542030E-1,-1.037206650E-1
1.466354066E1,1.922249794E-5,1.318101883E-1,-1.275911331E-1
1.467353976E1,1.459790170E-1,4.040765762E-1,-3.872013092E-2
1.468353909E1,2.640315294E-1,4.153089523E-1,1.385469437E-1
1.469353909E1,3.240319788E-1,8.636045456E-2,2.897157669E-1
1.470353846E1,1.945427060E-1,-3.472304344E-1,1.824407578E-1
1.471353846E1,-7.750046253E-2,-5.234332085E-1,1.467466354E-2
1.472353899E1,-2.148760557E-1,-3.075489998E-1,-1.857614517E-1
1.473353906E1,-9.408560395E-2,-1.235008240E-2,-3.267450333E-1
1.474353902E1,3.111046553E-2,1.857199669E-1,-3.350872993E-1
1.475353899E1,1.692129374E-1,2.998495102E-1,-2.387485504E-1
1.476353902E1,2.572207451E-1,3.400259018E-1,-8.607387543E-2
1.477353899E1,3.435402513E-1,1.647653580E-1,1.136980057E-1
1.478353899E1,3.505867124E-1,1.659111977E-1,1.126427650E-1
1.479353892E1,1.136310399E-1,-2.623214722E-1,2.385725975E-1
1.480353892E1,-8.660763502E-2,-1.822624207E-1,1.904759407E-1
1.481353896E1,-1.918099821E-1,5.016708374E-2,-2.795791626E-2
1.482353892E1,-1.973365843E-1,4.852581024E-2,-2.602720261E-2
1.483353896E1,2.261665463E-2,6.438045502E-1,-9.743881226E-2
1.484353899E1,2.557533979E-1,4.101691246E-1,3.164768219E-2
1.485353899E1,1.959698200E-1,-3.914833069E-2,2.208719254E-1
1.486353902E1,6.292554736E-2,-2.775630951E-1,2.428822517E-1
1.487353899E1,-1.954078972E-1,-2.709312439E-1,1.359348297E-1
1.488353899E1,-3.000826240E-1,-1.664161682E-4,-2.460193634E-2
1.489353902E1,-2.262168825E-1,1.474733353E-1,-1.833357811E-1
1.490353899E1,-2.341305614E-1,1.381206512E-1,-1.705675125E-1
1.491353895E1,-1.137451530E-1,2.889280319E-1,-2.246322632E-1
1.492353962E1,-1.250073314E-1,2.799396515E-1,-2.124853134E-1
1.493354032E1,1.023215055E-1,-3.716778755E-1,-2.741765976E-2
1.494354118E1,-1.223495007E-1,-4.759864807E-1,-2.377605438E-2
1.495354182E1,-3.140266240E-1,-1.940712929E-1,-1.813707352E-1
1.496354252E1,-2.467733920E-1,1.093807220E-1,-3.579287529E-1
1.497354342E1,2.379143238E-2,3.221082687E-1,-3.959865570E-1
1.498354408E1,1.884794533E-1,2.848386765E-1,-2.708740234E-1
1.499354405E1,1.362641007E-1,1.479244232E-2,-2.513494492E-1
1.500354468E1,-9.673449397E-2,-7.230939865E-1,-5.688643456E-1
1.501354468E1,-6.113529801E-1,-6.384663582E-1,-2.153120041E-1
1.502354412E1,-5.354586840E-1,1.025352478E-1,5.640792847E-2
1.503354405E1,-6.872570515E-2,7.236099243E-1,3.827195168E-1
1.504354408E1,1.619234234E-1,9.952411652E-1,7.940421104E-1
1.505354408E1,3.833646178E-1,5.440807343E-1,7.070012093E-1
1.506354405E1,2.770750225E-1,-1.351723671E-1,3.354907036E-1
1.507354405E1,-8.929461241E-3,-7.426452637E-1,3.993082047E-1
1.508354411E1,-1.772669852E-1,-8.696846962E-1,6.072468758E-1
1.509354415E1,-2.153415978E-1,-7.024707794E-1,5.123462677E-1
1.510354411E1,-2.224866152E-1,-7.019157410E-1,5.112199783E-1
1.511354414E1,-1.898124814E-1,-8.012628555E-2,-4.270730019E-1
1.512354418E1,-1.380369961E-1,1.838407516E-1,-6.132216454E-1
1.513354411E1,1.230215430E-1,4.486789703E-1,-4.796276093E-1
1.514354408E1,6.060044765E-1,2.581310272E-1,-1.414628029E-1
1.515354408E1,6.073681712E-1,2.605133057E-1,-1.448559761E-1
1.516354408E1,7.359821200E-1,-2.605514526E-1,3.027057648E-2
1.517354411E1,-8.777481318E-2,-8.366537094E-2,-5.181493759E-1
1.518354411E1,-7.470208406E-2,-8.222150803E-2,-5.196428299E-1
1.519354411E1,-9.492358565E-2,2.269973755E-1,-5.639204979E-1
1.520354414E1,1.640208215E-1,1.529359818E-1,-1.567173004E-1
1.521354414E1,1.703461409E-1,7.584571838E-2,8.990812302E-2
1.522354418E1,1.740451455E-1,8.347892761E-2,7.914638519E-2
1.523354414E1,1.307688951E-1,-2.821273804E-1,2.189307213E-1
1.524354418E1,7.231560349E-2,-3.737893105E-1,1.333746910E-1
1.525354421E1,-6.177926064E-2,-2.542414665E-1,2.663612366E-3
1.526354417E1,-1.814767122E-1,8.856105804E-2,-1.398339272E-1
1.527354414E1,-9.855437279E-2,4.300985336E-1,-1.919903755E-1
1.528354414E1,1.649852097E-1,4.240465164E-1,-7.839441299E-2
1.529354417E1,3.776125014E-1,-4.892873764E-2,5.200576782E-2
1.530354417E1,2.176935524E-1,-5.293326378E-1,-3.986740112E-2
1.531354414E1,-2.391107082E-1,-7.353477478E-1,-3.145899773E-1
1.532354417E1,-5.531186461E-1,-4.492754936E-1,-4.822902679E-1
1.533354420E1,-5.059540868E-1,-1.955032349E-4,-4.733886719E-1
1.534354417E1,-5.084801912E-1,1.983642578E-4,-4.741044044E-1
1.535354417E1,-1.429578662E-2,3.682222366E-1,2.587223053E-2
1.536354424E1,-1.984706521E-2,3.704013824E-1,2.245616913E-2
1.537354427E1,1.909515262E-2,1.053810120E-3,1.084566116E-1
1.538354420E1,-1.448249817E-2,-1.177558899E-1,-3.154277802E-2
1.539354417E1,-3.066562712E-1,-1.314477921E-1,-1.471424103E-1
1.540354420E1,-4.952647090E-1,7.577896118E-2,-1.558732986E-1
1.541354414E1,-4.065674841E-1,3.197088242E-1,-1.731014252E-2
1.542354414E1,-1.535168588E-1,3.251991272E-1,1.947755814E-1
1.543354414E1,7.080012560E-2,3.514757156E-1,3.330178261E-1
1.544354417E1,5.288007855E-2,2.090272903E-1,3.726520538E-1
1.545354420E1,1.002616584E-1,-1.008114815E-1,3.292646408E-1
1.546354417E1,5.091547966E-2,-1.982412338E-1,3.216800690E-1
1.547354420E1,-2.218230367E-1,2.733516693E-2,2.764539719E-1
1.548354420E1,-2.753969133E-1,3.693494797E-1,2.342329025E-1
1.549354417E1,-1.670649052E-1,5.654840469E-1,2.264499664E-1
1.550354413E1,-1.612703204E-1,5.728354454E-1,2.166175842E-1
1.551354413E1,1.319707930E-1,3.817982674E-1,1.761984825E-1
1.552354416E1,2.937513292E-1,1.073307991E-1,1.568436623E-1
1.553354420E1,3.099552691E-1,-1.135206223E-1,1.230273247E-1
1.554354416E1,3.195779920E-1,-1.106414795E-1,1.198539734E-1
1.555354416E1,-4.774028063E-2,-1.593160629E-1,7.527065277E-2
1.556354420E1,-7.244992256E-2,-1.066417694E-1,3.492069244E-2
1.557354420E1,-8.815789223E-2,6.687545776E-2,1.632366180E-1
1.558354423E1,-1.016097367E-1,6.408882141E-2,1.659445763E-1
1.559354420E1,-1.569938660E-2,3.663301468E-2,2.894558907E-1
1.560354423E1,-1.712281108E-1,-3.094582558E-1,3.858404160E-1
1.561354426E1,-4.913214147E-1,-5.797662735E-1,3.793072701E-1
1.562354370E1,-5.231642723E-1,-5.968255997E-1,4.011931419E-1
1.563354400E1,-7.126247883E-1,-7.399654388E-2,-2.657561302E-1
1.564354336E1,-3.413778841E-1,1.020278931E-1,-3.260493279E-1
1.565354269E1,2.721136808E-2,-2.542877197E-2,-2.071833611E-1
1.566354176E1,-1.194864511E-3,-4.526996613E-2,-1.796588898E-1
1.567354176E1,-2.316767573E-1,-3.135147095E-1,4.757213593E-2
1.568354113E1,-3.061525226E-1,-7.011985779E-2,2.741160393E-1
1.569354113E1,-1.291675866E-1,2.625074387E-1,5.574650764E-1
1.570354043E1,2.092531323E-2,4.246644974E-1,7.971529961E-1
1.571354049E1,1.283343434E-1,3.876552582E-1,8.985133171E-1
1.572353979E1,7.194951177E-3,3.048305511E-1,8.506884575E-1
1.573353979E1,-2.689494938E-2,2.925682068E-1,8.683357239E-1
1.574353976E1,2.966572717E-2,-6.071281433E-2,3.503408432E-1
1.575353972E1,3.707089275E-2,-2.656297684E-1,1.190080643E-1
1.576353976E1,6.932942197E-3,-2.799644470E-1,-1.319661140E-1
1.577353969E1,-1.931233257E-1,1.153450012E-1,-3.205628395E-1
1.578353966E1,-2.179799825E-1,5.534086227E-1,-4.042930603E-1
1.579353966E1,-5.085296929E-2,8.184595108E-1,-3.564867973E-1
1.580353969E1,2.382900715E-1,6.861743927E-1,-1.951479912E-1
1.581353906E1,3.728181422E-1,2.167205811E-1,-3.822374344E-2
1.582353899E1,1.676481217E-1,-1.574316025E-1,6.060600281E-4
1.583353902E1,-6.103637069E-2,-2.505073547E-1,1.861858368E-2
1.584353905E1,-2.915638387E-1,-1.050949097E-3,-6.902265549E-2
1.585353902E1,-1.269861460E-1,2.241258621E-1,-1.248936653E-1
1.586353902E1,3.468611836E-1,1.835489273E-1,-9.917116165E-2
1.587353902E1,3.400780559E-1,1.410741806E-1,-2.631239891E-1
1.588353902E1,3.574275970E-1,-5.239868164E-2,-3.648223877E-1
1.589353905E1,2.516536117E-1,-1.451377869E-1,-4.114098549E-1
1.590353902E1,2.869378626E-1,-1.942281723E-1,-4.086518288E-1
1.591353902E1,3.186178505E-1,-2.042036057E-1,-4.407196045E-1
1.592353962E1,1.582293510E-1,-1.319503784E-1,-5.029039383E-1
1.593353928E1,2.402465045E-2,-5.143070221E-2,-5.621213913E-1
1.594353992E1,-1.177067161E-1,2.563476562E-2,-5.852761269E-1
1.595354058E1,-1.722240448E-1,1.809720993E-1,-4.746904373E-1
1.596354148E1,5.697436631E-2,1.143226624E-1,-2.179389000E-1
1.597354148E1,2.194726318E-1,-2.618970871E-1,1.100997925E-1
1.598354212E1,2.158479393E-1,-2.565984726E-1,1.016106606E-1
1.599354215E1,-3.189513087E-1,-3.430571556E-1,1.734137535E-1
1.600354285E1,-3.715815246E-1,6.937217712E-2,2.264881134E-2
1.601354278E1,7.759392262E-3,2.010459900E-1,1.432371140E-2
1.602354345E1,-4.730671644E-3,2.038831711E-1,1.025104523E-2
1.603354345E1,2.606147826E-1,-3.097124100E-1,1.822223663E-1
1.604354348E1,-1.775990427E-2,-4.113731384E-1,1.958069801E-1
1.605354352E1,-1.739661396E-1,-2.106599808E-1,1.591067314E-1
1.606354348E1,-1.732697487E-1,-2.101249695E-1,1.582131386E-1
1.607354351E1,9.934599698E-2,3.756542206E-1,-9.666728973E-2
1.608354355E1,3.342272639E-1,3.790168762E-1,-2.163810730E-1
1.609354355E1,1.575736552E-1,4.577980042E-1,-1.832304001E-1
1.610354351E1,1.503133178E-1,4.503517151E-1,-1.708683968E-1
1.611354421E1,1.734991074E-1,4.004297256E-1,-5.653791428E-1
1.612354425E1,5.289716721E-1,2.401666641E-1,8.311901093E-1
1.613354418E1,5.208735466E-1,-2.440652847E-1,2.253115177E0
1.614354414E1,5.294897556E-1,-2.379188538E-1,2.242578506E0
1.615354418E1,4.181528687E-1,6.097497940E-1,2.013361454E0
1.616354414E1,7.567492723E-1,8.266267776E-1,1.373990536E0
1.617354414E1,8.763276339E-1,8.270978928E-1,2.342777252E-1
1.618354411E1,8.870614767E-1,8.064422607E-1,2.680850029E-1
1.619354411E1,2.630060911E-1,-3.401660919E-2,-1.148820877E0
1.620354414E1,-6.553245783E-1,-3.538942337E-1,-8.198537827E-1
1.621354411E1,-1.994621903E-1,-1.991777420E-1,-3.097553253E-1
1.622354408E1,-2.091548741E-1,1.342401505E-1,1.040201187E-1
1.623354408E1,-2.826395631E-1,3.617143631E-1,2.851710320E-1
1.624354414E1,-1.100119203E-1,3.236923218E-1,1.999726295E-1
1.625354417E1,2.690501809E-1,3.201293945E-2,4.289150238E-3
1.626354414E1,3.864049315E-1,-2.370815277E-1,-2.773652077E-1
1.627354414E1,2.645759284E-1,-3.583040237E-1,-5.954847336E-1
1.628354417E1,2.243825495E-1,-4.262032509E-1,-7.871146202E-1
1.629354414E1,1.807168424E-1,-4.278287888E-1,-7.698941231E-1
1.630354414E1,3.002166748E-1,-3.889942169E-1,-5.564508438E-1
1.631354414E1,2.202823311E-1,-1.207504272E-1,-2.563362122E-1
1.632354417E1,2.503558397E-1,-9.365177155E-2,-3.006658554E-1
1.633354421E1,2.289824933E-1,3.066167831E-1,1.784029007E-1
1.634354417E1,3.393798470E-1,1.602287292E-1,3.191089630E-1
1.635354414E1,3.162259161E-1,-1.381435394E-1,4.192070961E-1
1.636354420E1,-3.502177447E-2,-1.867017746E-1,3.835787773E-1
1.637354420E1,-3.130964637E-1,7.181167603E-3,4.063701630E-1
1.638354417E1,-3.116196394E-1,1.229791641E-1,4.558782578E-1
1.639354417E1,3.928209841E-2,-1.593208313E-2,7.225308418E-1
1.640354420E1,1.815200299E-1,-3.401374817E-1,8.493614197E-1
1.641354414E1,1.297408044E-1,-6.000022888E-1,8.746514320E-1
1.642354414E1,-9.936366975E-2,-5.292987823E-1,7.715144157E-1
1.643354414E1,-3.793495297E-1,-1.908874512E-1,4.714055061E-1
1.644354417E1,-5.125676394E-1,1.403417587E-1,2.801299095E-1
1.645354417E1,-4.028681219E-1,2.331867218E-1,2.129325867E-1
1.646354417E1,-2.253479362E-1,1.436405182E-1,2.589392662E-1
1.647354423E1,-2.403741032E-1,-2.725791931E-2,2.260541916E-1
1.648354427E1,-3.266668916E-1,-9.421348572E-3,1.413044930E-1
1.649354423E1,-1.531060487E-1,-7.608509064E-2,6.017494202E-2
1.650354420E1,-4.776221514E-2,-2.741031647E-1,8.150053024E-2
1.651354420E1,-1.604020894E-1,-3.225512505E-1,6.521272659E-2
1.652354420E1,-4.015125632E-1,-1.134452820E-1,6.607246399E-2
1.653354423E1,-3.660526574E-1,1.329479218E-1,1.104493141E-1
1.654354416E1,-8.641475439E-2,2.643203735E-2,2.317156792E-1
1.655354416E1,1.092779189E-1,-1.547579765E-1,5.393123627E-1
1.656354420E1,1.521814913E-1,-2.073302269E-1,7.847285271E-1
1.657354416E1,6.123335660E-2,-1.618251801E-1,9.131822586E-1
1.658354416E1,-4.724562168E-2,-1.373310089E-1,8.051290512E-1
1.659354416E1,-1.129997075E-1,3.836154938E-3,5.923156738E-1
1.660354416E1,-1.478202343E-1,3.019552231E-1,2.885804176E-1
1.661354420E1,-1.921212673E-2,4.344377518E-1,-1.609134674E-2
1.662354350E1,6.283468008E-2,2.620677948E-1,-8.029270172E-2
1.663354280E1,1.253168881E-1,-1.405668259E-2,-8.448266983E-2
1.664354193E1,1.117667258E-1,-2.447395325E-1,-2.004814148E-2
1.665354130E1,1.042631269E-2,-4.446129799E-1,4.876279831E-2
1.666354036E1,-1.360198259E-1,-3.342165947E-1,8.213376999E-2
1.667353946E1,-2.864108086E-1,-1.244401932E-1,1.975827217E-1
1.668353883E1,-1.785547733E-1,-1.091909409E-1,3.319649696E-1
1.669353816E1,-1.048195660E-1,-1.619887352E-1,3.367786407E-1
1.670353813E1,-2.257109582E-1,-1.470537186E-1,3.084936142E-1
1.671353813E1,-9.441718459E-2,-2.703123093E-1,8.457565308E-2
1.672353816E1,-5.386957526E-2,-3.705101013E-1,-1.987085342E-1
1.673353823E1,6.623566151E-4,-4.533257484E-1,-3.201217651E-1
1.674353823E1,7.574895024E-2,-3.811392784E-1,-3.369908333E-1
1.675353823E1,1.109058857E-1,-2.648591995E-1,-2.681026459E-1
1.676353829E1,1.234765351E-1,-2.567963600E-1,-2.776198387E-1
