"Time (s)","Acceleration x (m/s^2)","Acceleration y (m/s^2)","Acceleration z (m/s^2)"
1.382608300E-2,4.429273009E-1,6.409577370E0,7.156568050E0
1.581508300E-2,3.687070608E-1,6.464643955E0,7.075165272E0
1.781508300E-2,3.040636182E-1,6.514922142E0,7.003339291E0
1.981508300E-2,2.513911724E-1,6.562806129E0,6.931513309E0
2.181508300E-2,2.082955539E-1,6.608295918E0,6.864475727E0
2.381508300E-2,2.035071403E-1,6.637026310E0,6.775889874E0
2.580988300E-2,1.987187415E-1,6.658574104E0,6.706458092E0
2.780554900E-2,2.011129409E-1,6.672939301E0,6.648997307E0
2.980183400E-2,2.082955539E-1,6.682516098E0,6.601113319E0
3.179858400E-2,2.130839527E-1,6.689698696E0,6.562806129E0
3.379602800E-2,2.202665508E-1,6.694487095E0,6.531681538E0
3.579602800E-2,2.250549644E-1,6.699275494E0,6.505345345E0
3.779602800E-2,2.298433632E-1,6.701669693E0,6.486191750E0
3.979602800E-2,2.346317619E-1,6.706458092E0,6.471826553E0
4.179602800E-2,2.394201756E-1,6.713640690E0,6.462249756E0
4.379602800E-2,2.394201756E-1,6.730400085E0,6.455067158E0
4.579602800E-2,2.370259613E-1,6.747159481E0,6.450278759E0
4.779609000E-2,2.298433632E-1,6.766313076E0,6.450278759E0
4.979614800E-2,2.226607651E-1,6.783072472E0,6.452672958E0
5.179620300E-2,2.154781520E-1,6.797437668E0,6.464643955E0
5.379625500E-2,2.130839527E-1,6.811803341E0,6.479009151E0
5.579630500E-2,2.082955539E-1,6.823774338E0,6.495768547E0
5.779635200E-2,2.011129409E-1,6.835745335E0,6.514922142E0
5.979639700E-2,1.915361285E-1,6.847716331E0,6.541258335E0
6.179526600E-2,1.843535304E-1,6.857293129E0,6.567594528E0
6.379414100E-2,2.059013397E-1,6.869264126E0,6.637026310E0
6.579310100E-2,2.298433632E-1,6.881235123E0,6.701669693E0
6.779206200E-2,2.585737705E-1,6.888417721E0,6.756736279E0
6.979109900E-2,2.801215947E-1,6.895600319E0,6.802226067E0
7.179017000E-2,2.968810201E-1,6.900388718E0,6.838139534E0
7.378930700E-2,3.160346150E-1,6.902782917E0,6.874052525E0
7.578850700E-2,3.303998411E-1,6.902782917E0,6.902782917E0
7.778850700E-2,3.471592367E-1,6.902782917E0,6.933907509E0
7.978854000E-2,3.711012602E-1,6.902782917E0,6.974608898E0
8.178857300E-2,3.950432837E-1,6.905177116E0,7.015310287E0
8.378857300E-2,4.118026793E-1,6.909965515E0,7.063194275E0
8.576157300E-2,4.285621047E-1,6.917148113E0,7.120655060E0
8.776157300E-2,4.453215301E-1,6.924330711E0,7.173327446E0
8.975757300E-2,4.620809257E-1,6.936301708E0,7.230788231E0
9.175757300E-2,4.836287498E-1,6.953061104E0,7.293037415E0
9.375757300E-2,5.099649429E-1,6.974608898E0,7.357681274E0
9.575723900E-2,5.410895944E-1,6.991368294E0,7.415142059E0
9.775709600E-2,5.841852427E-1,7.010521889E0,7.484573841E0
9.975697100E-2,6.296750307E-1,7.027281284E0,7.549217224E0
1.017568590E-1,6.871358752E-1,7.036858082E0,7.618649006E0
1.037567590E-1,8.379706144E-1,7.029675484E0,7.752724171E0
1.057543040E-1,9.648633003E-1,7.022492886E0,7.867646217E0
1.077520540E-1,1.065419793E0,7.017704487E0,7.958625793E0
1.097499770E-1,1.151610970E0,7.015310287E0,8.040028572E0
1.117480480E-1,1.225831270E0,7.010521889E0,8.111854553E0
1.137475140E-1,1.285686255E0,7.008127689E0,8.169315338E0
1.157462640E-1,1.333570361E0,7.005733490E0,8.214805603E0
1.177462050E-1,1.379060149E0,7.008127689E0,8.267477989E0
1.197461490E-1,1.419761658E0,7.010521889E0,8.317755699E0
1.217460960E-1,1.455674648E0,7.012916088E0,8.372822762E0
1.237460460E-1,1.486799240E0,7.017704487E0,8.427888870E0
1.257460460E-1,1.510741234E0,7.017704487E0,8.480561256E0
1.277460460E-1,1.522712231E0,7.012916088E0,8.528446198E0
1.297460460E-1,1.525106430E0,7.008127689E0,8.573935509E0
1.317460460E-1,1.520318031E0,7.003339291E0,8.612242699E0
1.337460460E-1,1.491587639E0,6.996156693E0,8.645761490E0
1.357460460E-1,1.458068848E0,6.988974094E0,8.669703484E0
1.377460460E-1,1.412579060E0,6.981791496E0,8.684068680E0
1.397460460E-1,1.369483352E0,6.972214699E0,8.691251755E0
1.417460110E-1,1.316810966E0,6.962637901E0,8.686463356E0
1.437459770E-1,1.223437071E0,6.926724911E0,8.609848976E0
1.457459770E-1,1.144428372E0,6.895600319E0,8.540416718E0
1.477450770E-1,1.079784989E0,6.869264126E0,8.473379135E0
1.497445770E-1,1.024718285E0,6.845322132E0,8.408735275E0
1.517436770E-1,9.816226959E-1,6.826168537E0,8.356062889E0
1.537431100E-1,9.457096457E-1,6.811803341E0,8.315361977E0
1.557423100E-1,9.169792533E-1,6.799831867E0,8.281843185E0
1.577423100E-1,8.906430602E-1,6.790255070E0,8.243535995E0
1.597423100E-1,8.643068075E-1,6.778284073E0,8.190863609E0
1.617423100E-1,8.307880163E-1,6.771101475E0,8.123826027E0
1.637423100E-1,7.924807668E-1,6.766313076E0,8.044816971E0
1.657431760E-1,7.589619160E-1,6.759130478E0,7.970596790E0
1.677440420E-1,7.278373241E-1,6.749553680E0,7.889194012E0
1.697449080E-1,7.015010715E-1,6.735188484E0,7.803002834E0
1.717457740E-1,6.799532771E-1,6.723217487E0,7.723993778E0
1.737460400E-1,6.655880809E-1,6.711246490E0,7.642591000E0
1.757467060E-1,6.584054828E-1,6.694487095E0,7.563582420E0
1.777467390E-1,6.560112834E-1,6.680121899E0,7.494150639E0
1.797467720E-1,6.560112834E-1,6.668150902E0,7.431901455E0
1.817468050E-1,6.560112834E-1,6.663362503E0,7.372046471E0
1.837468380E-1,6.464344859E-1,6.682516098E0,7.319374084E0
1.857459710E-1,6.416460276E-1,6.699275494E0,7.281066418E0
1.877450710E-1,6.392518282E-1,6.716034889E0,7.252336025E0
1.897441710E-1,6.368576288E-1,6.730400085E0,7.230788231E0
1.917432710E-1,6.392518282E-1,6.742371082E0,7.214028835E0
1.937429040E-1,6.416460276E-1,6.751947880E0,7.199663639E0
1.957419700E-1,6.416460276E-1,6.759130478E0,7.187692642E0
1.977419360E-1,6.464344859E-1,6.766313076E0,7.178115845E0
1.997419020E-1,6.560112834E-1,6.775889874E0,7.175721645E0
2.017419020E-1,6.727706790E-1,6.780678272E0,7.180510044E0
2.037429020E-1,6.967126727E-1,6.785466671E0,7.187692642E0
2.057409020E-1,7.230489254E-1,6.787860870E0,7.197269440E0
2.077409020E-1,7.493851185E-1,6.792649269E0,7.214028835E0
2.097409020E-1,7.733271718E-1,6.792649269E0,7.230788231E0
2.117409020E-1,7.972691655E-1,6.792649269E0,7.249941826E0
2.137409020E-1,8.188169599E-1,6.795043468E0,7.269095421E0
2.157430680E-1,8.355764151E-1,6.797437668E0,7.285854816E0
2.177430680E-1,8.451532125E-1,6.804620743E0,7.302614689E0
2.197429430E-1,8.547300100E-1,6.814197540E0,7.321768284E0
2.217428310E-1,8.643068075E-1,6.823774338E0,7.340921879E0
2.237427310E-1,8.523358107E-1,6.818985939E0,7.369652271E0
2.257402760E-1,8.427590132E-1,6.814197540E0,7.391200066E0
2.277380260E-1,8.355764151E-1,6.809409142E0,7.410353661E0
2.297359490E-1,8.259995580E-1,6.802226067E0,7.427113056E0
2.317340200E-1,8.116343617E-1,6.795043468E0,7.443872452E0
2.337323530E-1,8.020575643E-1,6.787860870E0,7.458237648E0
2.357306650E-1,7.876923680E-1,6.783072472E0,7.470208645E0
2.377306650E-1,7.733271718E-1,6.778284073E0,7.482179642E0
2.397306090E-1,7.589619160E-1,6.771101475E0,7.501333237E0
2.417305560E-1,7.469909191E-1,6.763918877E0,7.522881031E0
2.437305060E-1,7.422025204E-1,6.754342079E0,7.563582420E0
2.457304580E-1,7.422025204E-1,6.742371082E0,7.601889610E0
2.477299580E-1,7.445967197E-1,6.728005886E0,7.640196800E0
2.497299140E-1,7.541735172E-1,6.708852291E0,7.683292389E0
2.517299140E-1,7.733271718E-1,6.684910297E0,7.728782177E0
2.537299140E-1,7.972691655E-1,6.656179905E0,7.774271965E0
2.557299140E-1,8.188169599E-1,6.632237911E0,7.812579632E0
2.577299140E-1,8.427590132E-1,6.605901718E0,7.850886822E0
2.597299140E-1,8.643068075E-1,6.581959724E0,7.889194012E0
2.617299140E-1,8.810662031E-1,6.560411930E0,7.920318604E0
2.637299140E-1,9.074024558E-1,6.541258335E0,7.937077999E0
2.657291140E-1,9.289502501E-1,6.526893139E0,7.949048996E0
2.677282140E-1,9.481038451E-1,6.519710541E0,7.953837395E0
2.697273140E-1,9.648633003E-1,6.519710541E0,7.953837395E0
2.717264140E-1,9.768342972E-1,6.519710541E0,7.953837395E0
2.737254800E-1,9.864110947E-1,6.519710541E0,7.953837395E0
2.757241460E-1,9.959878922E-1,6.524498940E0,7.951443195E0
2.777241120E-1,1.000776291E0,6.531681538E0,7.946654797E0
2.797241120E-1,1.003170490E0,6.543652534E0,7.939472198E0
2.817241450E-1,1.005564690E0,6.565200329E0,7.929895401E0
2.837241780E-1,1.005564690E0,6.596324921E0,7.915530205E0
2.857250440E-1,1.003170490E0,6.625055313E0,7.898770809E0
2.877259440E-1,9.983820915E-1,6.663362503E0,7.872434616E0
2.897268440E-1,9.935936928E-1,6.706458092E0,7.838915825E0
2.917277440E-1,9.911994934E-1,6.749553680E0,7.800608635E0
2.937285770E-1,9.911994934E-1,6.792649269E0,7.759906769E0
2.957294770E-1,9.935936928E-1,6.828562737E0,7.721599579E0
2.977294430E-1,1.005564690E0,6.857293129E0,7.678503990E0
2.997294430E-1,1.017535686E0,6.881235123E0,7.640196800E0
3.017294430E-1,1.034295082E0,6.900388718E0,7.599495411E0
3.037294430E-1,1.019929886E0,6.926724911E0,7.520486832E0
3.057285760E-1,1.005564690E0,6.948272705E0,7.453449249E0
3.077280420E-1,9.888052940E-1,6.965032101E0,7.395988464E0
3.097271750E-1,9.768342972E-1,6.977003098E0,7.350498676E0
3.117262750E-1,9.672574997E-1,6.986579895E0,7.312191486E0
3.137253410E-1,9.600749016E-1,6.993762493E0,7.283460617E0
3.157244410E-1,9.504981041E-1,6.996156693E0,7.257124424E0
3.177244070E-1,9.433154464E-1,6.998550892E0,7.235576630E0
3.197243730E-1,9.385270476E-1,6.986579895E0,7.214028835E0
3.217236390E-1,9.337386489E-1,6.972214699E0,7.187692642E0
3.237446390E-1,9.361328483E-1,6.943484306E0,7.158962250E0
3.257436390E-1,9.385270476E-1,6.912359715E0,7.132626057E0
3.277436390E-1,9.385270476E-1,6.866869926E0,7.111078262E0
3.297439720E-1,9.337386489E-1,6.809409142E0,7.094318867E0
3.317442220E-1,9.265560508E-1,6.756736279E0,7.079953671E0
3.337444220E-1,9.121908545E-1,6.696881294E0,7.063194275E0
3.357425880E-1,8.858546019E-1,6.641814709E0,7.051223278E0
3.377427300E-1,8.571242094E-1,6.593930721E0,7.041646481E0
3.397428550E-1,8.188169599E-1,6.548440933E0,7.032069683E0
3.417429660E-1,7.757213712E-1,6.512527943E0,7.022492886E0
3.437430660E-1,6.967126727E-1,6.500556946E0,7.032069683E0
3.457407020E-1,6.320692301E-1,6.490980148E0,7.039252281E0
3.477385350E-1,5.770025849E-1,6.488585949E0,7.048829079E0
3.497365350E-1,5.315127969E-1,6.486191750E0,7.056011677E0
3.517346770E-1,4.932055473E-1,6.488585949E0,7.065588474E0
3.537332770E-1,4.572925270E-1,6.493374348E0,7.079953671E0
3.557320890E-1,4.285621047E-1,6.498162746E0,7.091924667E0
3.577320890E-1,3.998316824E-1,6.505345345E0,7.108684063E0
3.597320890E-1,3.734954596E-1,6.524498940E0,7.135020256E0
3.617321410E-1,3.543418646E-1,6.548440933E0,7.163750648E0
3.637321910E-1,3.447650373E-1,6.579565525E0,7.192481041E0
3.657322380E-1,3.375824392E-1,6.608295918E0,7.216423035E0
3.677322830E-1,3.423708379E-1,6.641814709E0,7.240365028E0
3.697323260E-1,3.495534360E-1,6.670545101E0,7.261912823E0
3.717323670E-1,3.663128614E-1,6.699275494E0,7.281066418E0
3.737324070E-1,3.854664862E-1,6.728005886E0,7.300220490E0
3.757324070E-1,4.046200812E-1,6.754342079E0,7.319374084E0
3.777324070E-1,4.357447028E-1,6.783072472E0,7.343316078E0
3.797319780E-1,4.812345505E-1,6.802226067E0,7.374440670E0
3.817319780E-1,5.410895944E-1,6.816591740E0,7.417536259E0
3.837319780E-1,7.206547260E-1,6.780678272E0,7.518092632E0
3.857311440E-1,8.643068075E-1,6.751947880E0,7.597101212E0
3.877302770E-1,9.935936928E-1,6.716034889E0,7.671321392E0
3.897293770E-1,1.108515382E0,6.677727699E0,7.743147373E0
3.917284770E-1,1.199495077E0,6.646603107E0,7.800608635E0
3.937283770E-1,1.285686255E0,6.615478516E0,7.855675220E0
3.957278430E-1,1.352723956E0,6.589142323E0,7.901165009E0
3.977277760E-1,1.417367458E0,6.560411930E0,7.946654797E0
3.997277420E-1,1.482010841E0,6.517316341E0,7.999327183E0
4.017277080E-1,1.537077546E0,6.474220753E0,8.044816971E0
4.037276740E-1,1.577778935E0,6.423942566E0,8.102277756E0
4.057284400E-1,1.604115129E0,6.380846977E0,8.152556419E0
4.077293060E-1,1.620874524E0,6.347328186E0,8.198045731E0
4.097302060E-1,1.620874524E0,6.323386192E0,8.231564522E0
4.117311060E-1,1.606509328E0,6.309020519E0,8.262689590E0
4.137318390E-1,1.582567334E0,6.299443722E0,8.284236908E0
4.157325050E-1,1.556231141E0,6.294655323E0,8.298602104E0
4.177325380E-1,1.520318031E0,6.294655323E0,8.300996780E0
4.197325710E-1,1.484405041E0,6.304232121E0,8.286631584E0
4.217325710E-1,1.448492050E0,6.316203594E0,8.267477989E0
4.237325370E-1,1.333570361E0,6.347328186E0,8.142979622E0
4.257316370E-1,1.230619669E0,6.378452778E0,8.032846451E0
4.277307370E-1,1.142034173E0,6.409577370E0,7.932289600E0
4.297298370E-1,1.072602391E0,6.433519363E0,7.853281021E0
4.317289370E-1,1.017535686E0,6.452672958E0,7.788637638E0
4.337280030E-1,9.648633003E-1,6.471826553E0,7.726387978E0
4.357273030E-1,9.241618514E-1,6.486191750E0,7.676109791E0
4.377273360E-1,8.810662031E-1,6.502951145E0,7.623437405E0
4.397277690E-1,8.307880163E-1,6.519710541E0,7.570765018E0
4.417278020E-1,7.852981687E-1,6.536469936E0,7.513304234E0
4.437278020E-1,7.398083210E-1,6.548440933E0,7.455843449E0
4.457278020E-1,6.919242740E-1,6.560411930E0,7.393594265E0
4.477278020E-1,6.488286853E-1,6.569988728E0,7.338527679E0
4.497278020E-1,6.081272364E-1,6.579565525E0,7.285854816E0
4.517278020E-1,5.674257874E-1,6.584353924E0,7.228394032E0
4.537276020E-1,5.243301988E-1,6.586748123E0,7.173327446E0
4.557272680E-1,4.836287498E-1,6.586748123E0,7.127837658E0
4.577271250E-1,4.477157295E-1,6.579565525E0,7.087136269E0
4.597270000E-1,4.165911078E-1,6.572382927E0,7.051223278E0
4.617268880E-1,3.854664862E-1,6.560411930E0,7.020098686E0
4.637267880E-1,3.926490843E-1,6.483797550E0,6.991368294E0
4.657243330E-1,3.998316824E-1,6.414365768E0,6.969820499E0
4.677220830E-1,4.070142806E-1,6.359299183E0,6.953061104E0
4.697200060E-1,4.141969085E-1,6.304232121E0,6.943484306E0
4.717180770E-1,4.237737060E-1,6.249165535E0,6.941090107E0
4.737162770E-1,4.309563041E-1,6.206069946E0,6.938695908E0
4.757145890E-1,4.381389022E-1,6.172551155E0,6.936301708E0
4.777145300E-1,4.548983276E-1,6.129455566E0,6.943484306E0
4.797144740E-1,4.692635238E-1,6.086359978E0,6.955455303E0
4.817144210E-1,4.764461517E-1,6.045658588E0,6.977003098E0
4.837143210E-1,4.788403511E-1,6.009745598E0,7.005733490E0
4.857142730E-1,4.788403511E-1,5.978621006E0,7.032069683E0
4.877142730E-1,4.812345505E-1,5.952284813E0,7.065588474E0
4.897142730E-1,4.812345505E-1,5.935525417E0,7.103895664E0
4.917142730E-1,4.812345505E-1,5.923554420E0,7.142202854E0
4.937142730E-1,4.812345505E-1,5.923554420E0,7.194875240E0
4.957142730E-1,4.812345505E-1,5.923554420E0,7.245153427E0
4.977142730E-1,4.788403511E-1,5.928342819E0,7.293037415E0
4.997142730E-1,4.740519226E-1,5.937919617E0,7.348104477E0
5.017142380E-1,4.716577232E-1,5.949890614E0,7.405565262E0
5.037142040E-1,5.123591423E-1,6.024110794E0,7.482179642E0
5.057133040E-1,5.554547906E-1,6.093542576E0,7.542034626E0
5.077124040E-1,5.889736414E-1,6.148609161E0,7.589918613E0
5.097115040E-1,6.224924326E-1,6.203675747E0,7.625831604E0
5.117106040E-1,6.584054828E-1,6.256348133E0,7.652167797E0
5.137100370E-1,6.871358752E-1,6.297049522E0,7.673715591E0
5.157091700E-1,7.110779285E-1,6.330568790E0,7.690474987E0
5.177092030E-1,7.398083210E-1,6.366481781E0,7.702445984E0
5.197092360E-1,7.805097699E-1,6.409577370E0,7.702445984E0
5.217092690E-1,8.283938169E-1,6.452672958E0,7.695263386E0
5.237089020E-1,8.786720037E-1,6.490980148E0,7.690474987E0
5.257097680E-1,9.217676520E-1,6.522104740E0,7.692869186E0
5.277106680E-1,9.624691010E-1,6.543652534E0,7.707234383E0
5.297115680E-1,9.959878922E-1,6.558017731E0,7.723993778E0
5.317124340E-1,1.019929886E0,6.567594528E0,7.740753174E0
5.337133000E-1,1.034295082E0,6.572382927E0,7.759906769E0
5.357141660E-1,1.036689281E0,6.569988728E0,7.783848763E0
5.377141660E-1,1.036689281E0,6.565200329E0,7.805397034E0
5.397136320E-1,1.036689281E0,6.555623531E0,7.822156429E0
5.417136320E-1,1.039083481E0,6.546046734E0,7.831733227E0
5.437136650E-1,1.003170490E0,6.543652534E0,7.812579632E0
5.457127980E-1,9.600749016E-1,6.538864136E0,7.805397034E0
5.477118980E-1,9.074024558E-1,6.529287338E0,7.807791233E0
5.497109980E-1,8.643068075E-1,6.522104740E0,7.807791233E0
5.517100980E-1,8.092401624E-1,6.505345345E0,7.817368031E0
5.537091640E-1,7.661445141E-1,6.490980148E0,7.824550629E0
5.557084640E-1,7.326257229E-1,6.481403351E0,7.829339027E0
5.577084300E-1,6.799532771E-1,6.459855556E0,7.838915825E0
5.597083960E-1,5.817909837E-1,6.414365768E0,7.862857819E0
5.617083960E-1,4.453215301E-1,6.364087582E0,7.886799812E0
5.637093960E-1,2.849099934E-1,6.277895927E0,7.932289600E0
5.657093960E-1,1.340752989E-1,6.196493149E0,7.980173588E0
5.677093960E-1,-2.873042040E-2,6.105513573E0,8.037634850E0
5.697093960E-1,-1.771709323E-1,6.016928196E0,8.095095634E0
5.717093960E-1,-3.232172430E-1,5.923554420E0,8.159738541E0
5.737093960E-1,-4.572925270E-1,5.834969044E0,8.217199326E0
5.757092290E-1,-5.746083856E-1,5.758354187E0,8.257901192E0
5.777062290E-1,-6.871358752E-1,5.688922405E0,8.269871712E0
5.797061040E-1,-7.948749661E-1,5.645826817E0,8.253112793E0
5.817059920E-1,-8.858546019E-1,5.619490623E0,8.229170799E0
5.837058920E-1,-7.589619160E-1,5.772719383E0,8.013691902E0
5.857033460E-1,-6.560112834E-1,5.916371822E0,7.824550629E0
5.877010120E-1,-5.434837937E-1,6.050446987E0,7.654561996E0
5.896988580E-1,-4.237737060E-1,6.172551155E0,7.506121635E0
5.916968580E-1,-3.280056417E-1,6.270713329E0,7.386411667E0
5.936949910E-1,-2.513911724E-1,6.349722385E0,7.290643215E0
5.956933030E-1,-1.891419291E-1,6.411971569E0,7.214028835E0
5.976930080E-1,-1.101332754E-1,6.474220753E0,7.142202854E0
5.996921740E-1,-9.576806799E-3,6.536469936E0,7.070376873E0
6.016913840E-1,8.858546615E-2,6.610690117E0,7.008127689E0
6.036913840E-1,2.202665508E-1,6.699275494E0,6.955455303E0
6.056913840E-1,3.519476354E-1,6.780678272E0,6.912359715E0
6.076933840E-1,5.051765442E-1,6.857293129E0,6.883629322E0
6.096930500E-1,6.703764796E-1,6.931513309E0,6.852504730E0
6.116953000E-1,8.643068075E-1,7.000945091E0,6.807014942E0
6.136951000E-1,1.110909581E0,7.053617477E0,6.768707275E0
6.156949330E-1,1.347935557E0,7.094318867E0,6.737582684E0
6.176947900E-1,1.599326730E0,7.120655060E0,6.713640690E0
6.196970400E-1,1.821987510E0,7.139808655E0,6.692092896E0
6.216969280E-1,2.020706177E0,7.156568050E0,6.677727699E0
6.236968280E-1,2.068590164E0,7.156568050E0,6.773495674E0
6.256957370E-1,2.082955360E0,7.149385452E0,6.857293129E0
6.276947370E-1,2.092532396E0,7.144597054E0,6.924330711E0
6.296938130E-1,2.075772762E0,7.132626057E0,6.986579895E0
6.316929550E-1,2.035071373E0,7.113472462E0,7.044040680E0
6.336920880E-1,2.001552582E0,7.099107265E0,7.089530468E0
6.356912750E-1,1.975216389E0,7.087136269E0,7.125443459E0
6.376912160E-1,1.896207690E0,7.065588474E0,7.168539047E0
6.396917160E-1,1.807622313E0,7.041646481E0,7.209240437E0
6.416917160E-1,1.685518026E0,7.010521889E0,7.245153427E0
6.436917160E-1,1.539471745E0,6.974608898E0,7.266701221E0
6.456917160E-1,1.400607944E0,6.933907509E0,7.283460617E0
6.476914430E-1,1.244984865E0,6.878840923E0,7.288249016E0
6.496920950E-1,1.086967587E0,6.818985939E0,7.283460617E0
6.516927200E-1,9.481038451E-1,6.761524677E0,7.276278019E0
6.536933200E-1,8.116343617E-1,6.680121899E0,7.269095421E0
6.556938960E-1,6.967126727E-1,6.603507519E0,7.266701221E0
6.576944140E-1,5.913678408E-1,6.524498940E0,7.276278019E0
6.596949140E-1,5.027823448E-1,6.447884560E0,7.293037415E0
6.616953960E-1,4.141969085E-1,6.366481781E0,7.328950882E0
6.636958620E-1,2.537853718E-1,6.249165535E0,7.501333237E0
6.656954620E-1,1.244984865E-1,6.155791759E0,7.640196800E0
6.676949280E-1,1.915361360E-2,6.079177380E0,7.759906769E0
6.696945610E-1,-5.985504389E-2,6.019322395E0,7.862857819E0
6.716938610E-1,-1.221042871E-1,5.971438408E0,7.944260597E0
6.736934610E-1,-1.723825186E-1,5.933131218E0,8.008903503E0
6.756940940E-1,-2.130839527E-1,5.902006626E0,8.061576843E0
6.776945940E-1,-2.370259613E-1,5.880458832E0,8.109460831E0
6.796944600E-1,-2.322375625E-1,5.861305237E0,8.147768021E0
6.816949600E-1,-1.891419291E-1,5.844545841E0,8.162133217E0
6.836949600E-1,-1.077390760E-1,5.832574844E0,8.150161743E0
6.856939600E-1,-1.915361360E-2,5.822998047E0,8.128614426E0
6.876944600E-1,9.816227108E-2,5.815814972E0,8.087912560E0
6.896947930E-1,2.322375625E-1,5.808632374E0,8.032846451E0
6.916950430E-1,3.567360640E-1,5.806238174E0,7.975385189E0
6.936952430E-1,4.932055473E-1,5.808632374E0,7.908347607E0
6.956942430E-1,6.344634295E-1,5.815814972E0,7.829339027E0
6.976943850E-1,7.613561153E-1,5.827786446E0,7.755118370E0
6.996945100E-1,8.882488012E-1,5.851728439E0,7.671321392E0
7.016946210E-1,1.012747288E0,5.885247231E0,7.570765018E0
7.036942210E-1,1.161187768E0,5.957073212E0,7.324162483E0
7.056918570E-1,1.280897856E0,6.014533997E0,7.127837658E0
7.076896900E-1,1.374271750E0,6.060023785E0,6.955455303E0
7.096876900E-1,1.446097851E0,6.095936775E0,6.807014942E0
7.116858320E-1,1.503558636E0,6.124667168E0,6.687304497E0
7.136840980E-1,1.544260144E0,6.151003361E0,6.584353924E0
7.156824100E-1,1.577778935E0,6.172551155E0,6.500556946E0
7.176824100E-1,1.599326730E0,6.191704750E0,6.423942566E0
7.196824650E-1,1.592144132E0,6.213252544E0,6.347328186E0
7.216825170E-1,1.556231141E0,6.237194538E0,6.280290127E0
7.236825170E-1,1.479616642E0,6.263530731E0,6.227617741E0
7.256825640E-1,1.362300754E0,6.297049522E0,6.184522152E0
7.276826090E-1,1.259350061E0,6.347328186E0,6.146214962E0
7.296821300E-1,1.180341482E0,6.385635376E0,6.127061367E0
7.316821710E-1,1.098938584E0,6.414365768E0,6.119878769E0
7.336822110E-1,9.983820915E-1,6.440701962E0,6.110301971E0
7.356822110E-1,9.002198577E-1,6.464643955E0,6.095936775E0
7.376822110E-1,7.805097699E-1,6.488585949E0,6.079177380E0
7.396822110E-1,6.488286853E-1,6.510133743E0,6.067206383E0
7.416822110E-1,5.267243981E-1,6.529287338E0,6.060023785E0
7.436822110E-1,2.992752194E-1,6.505345345E0,6.088754177E0
7.456813770E-1,1.173158810E-1,6.486191750E0,6.112696171E0
7.476804770E-1,-2.873042040E-2,6.452672958E0,6.131849766E0
7.496795770E-1,-1.436520964E-1,6.402394772E0,6.146214962E0
7.516786770E-1,-2.346317619E-1,6.361693382E0,6.155791759E0
7.536786100E-1,-3.064578176E-1,6.330568790E0,6.165368557E0
7.556779100E-1,-3.495534360E-1,6.273107529E0,6.167762756E0
7.576778760E-1,-3.567360640E-1,6.182127953E0,6.160580158E0
7.596778420E-1,-3.303998411E-1,6.050446987E0,6.160580158E0
7.616778080E-1,-3.184288144E-1,5.933131218E0,6.182127953E0
7.636779410E-1,-2.561795712E-1,5.811026573E0,6.230011940E0
7.656788070E-1,-1.197100878E-1,5.542876244E0,6.258742332E0
7.676794730E-1,4.548983276E-2,5.262754440E0,6.285078526E0
7.696803730E-1,2.106897533E-1,4.970662117E0,6.313809395E0
7.716812730E-1,2.968810201E-1,4.742913723E0,6.364087582E0
7.736821730E-1,2.561795712E-1,4.618414879E0,6.447884560E0
7.756831060E-1,1.604115069E-1,4.553771496E0,6.541258335E0
7.776831390E-1,-3.351882473E-2,4.572925091E0,6.672939301E0
7.796831390E-1,-2.873041928E-1,4.661510944E0,6.828562737E0
7.816831050E-1,-5.291185975E-1,4.764461517E0,6.979397297E0
7.836831050E-1,-8.762778044E-1,4.977844715E0,7.180510044E0
7.856822050E-1,-1.149216771E0,5.143044472E0,7.340921879E0
7.876813050E-1,-1.357512355E0,5.267542839E0,7.470208645E0
7.896808050E-1,-1.525106430E0,5.368099689E0,7.573159218E0
7.916799050E-1,-1.659181833E0,5.449502468E0,7.654561996E0
7.936795710E-1,-1.764526606E0,5.514145851E0,7.719205379E0
7.956786710E-1,-1.836352706E0,5.554847240E0,7.767089367E0
7.976787040E-1,-1.879448295E0,5.576395035E0,7.800608635E0
7.996787370E-1,-1.896207690E0,5.583577633E0,7.822156429E0
8.016787700E-1,-1.865083098E0,5.559635639E0,7.834127426E0
8.036787700E-1,-1.800439715E0,5.514145851E0,7.838915825E0
8.056777700E-1,-1.733402014E0,5.466261864E0,7.843704224E0
8.076777700E-1,-1.654393315E0,5.411195278E0,7.850886822E0
8.096777700E-1,-1.592144132E0,5.360917091E0,7.865252018E0
8.116777700E-1,-1.541865945E0,5.327397823E0,7.891588211E0
8.136775700E-1,-1.501164436E0,5.308244228E0,7.925107002E0
8.156774030E-1,-1.465251446E0,5.298667431E0,7.958625793E0
8.176772600E-1,-1.419761658E0,5.305850029E0,7.996932983E0
8.196756350E-1,-1.367089152E0,5.317821026E0,8.030451775E0
8.216759680E-1,-1.300051570E0,5.341763496E0,8.059182167E0
8.236758680E-1,-1.070208192E0,5.420772076E0,8.044816971E0
8.256734130E-1,-8.595184088E-1,5.487809658E0,8.028057098E0
8.276711630E-1,-6.895300746E-1,5.540482044E0,8.013691902E0
8.296690860E-1,-5.291185975E-1,5.583577633E0,7.999327183E0
8.316671570E-1,-3.782838583E-1,5.617096424E0,7.987356186E0
8.336658230E-1,-2.585737705E-1,5.645826817E0,7.977779388E0
8.356641350E-1,-1.628057212E-1,5.667374611E0,7.970596790E0
8.376645460E-1,-4.309562966E-2,5.684134007E0,7.965808392E0
8.396644900E-1,6.943184882E-2,5.693710804E0,7.961019993E0
8.416644370E-1,2.035071403E-1,5.696105003E0,7.953837395E0
8.436643370E-1,3.447650373E-1,5.693710804E0,7.946654797E0
8.456643370E-1,4.716577232E-1,5.688922405E0,7.939472198E0
8.476643370E-1,6.009446383E-1,5.676951408E0,7.925107002E0
8.496643370E-1,7.254431248E-1,5.667374611E0,7.903559208E0
8.516634620E-1,8.355764151E-1,5.655403614E0,7.879617214E0
8.536634620E-1,9.409212470E-1,5.641038418E0,7.846098423E0
8.556634620E-1,1.034295082E0,5.629067421E0,7.807791233E0
8.576630170E-1,1.115697980E0,5.621884823E0,7.771877766E0
8.596629450E-1,1.189918280E0,5.624279022E0,7.728782177E0
8.616629100E-1,1.256955862E0,5.636250019E0,7.678503990E0
8.636628760E-1,1.319205165E0,5.700893402E0,7.582736015E0
8.656620090E-1,1.369483352E0,5.751171589E0,7.508515835E0
8.676611090E-1,1.407790542E0,5.794267178E0,7.451055050E0
8.696602090E-1,1.436521053E0,5.830180645E0,7.410353661E0
8.716593090E-1,1.455674648E0,5.858911037E0,7.386411667E0
8.736589750E-1,1.470039845E0,5.882853031E0,7.367258072E0
8.756581080E-1,1.482010841E0,5.902006626E0,7.350498676E0
8.776581410E-1,1.489193439E0,5.916371822E0,7.343316078E0
8.796585740E-1,1.479616642E0,5.918766022E0,7.352892876E0
8.816584740E-1,1.455674648E0,5.909189224E0,7.369652271E0
8.836585070E-1,1.417367458E0,5.885247231E0,7.393594265E0
8.856587400E-1,1.374271750E0,5.858911037E0,7.419930458E0
8.876596400E-1,1.312022567E0,5.822998047E0,7.455843449E0
8.896605060E-1,1.247379065E0,5.784690380E0,7.489362240E0
8.916613720E-1,1.163581967E0,5.736806393E0,7.527669430E0
8.936620050E-1,1.065419793E0,5.681739807E0,7.568370819E0
8.956628380E-1,9.720458984E-1,5.624279022E0,7.604283810E0
8.976625710E-1,8.690952063E-1,5.557241440E0,7.640196800E0
8.996616710E-1,7.493851185E-1,5.480627060E0,7.673715591E0
9.016609710E-1,6.368576288E-1,5.408801079E0,7.702445984E0
9.036614710E-1,3.974374831E-1,5.248389244E0,7.723993778E0
9.056605370E-1,1.915361285E-1,5.111919880E0,7.738358974E0
9.076596370E-1,1.197100803E-2,4.996998310E0,7.745541573E0
9.096591700E-1,-1.292868853E-1,4.906018734E0,7.750329971E0
9.116589360E-1,-2.537853718E-1,4.824316502E0,7.750329971E0
9.136580360E-1,-3.543418646E-1,4.757278919E0,7.750329971E0
9.156571360E-1,-4.333505034E-1,4.704606533E0,7.750329971E0
9.176566020E-1,-5.075707436E-1,4.651933670E0,7.747935772E0
9.196559350E-1,-5.746083856E-1,4.599261284E0,7.738358974E0
9.216553010E-1,-6.320692301E-1,4.548983097E0,7.723993778E0
9.236753010E-1,-6.847416759E-1,4.489128113E0,7.695263386E0
9.256753010E-1,-7.254431248E-1,4.434061527E0,7.666532993E0
9.276753010E-1,-7.541735172E-1,4.383783340E0,7.635408401E0
9.326582310E-1,-7.733271718E-1,4.328716755E0,7.599495411E0
9.346582310E-1,-7.829039693E-1,4.271255970E0,7.561188221E0
9.366540310E-1,-7.852981687E-1,4.213795185E0,7.527669430E0
9.386540310E-1,-7.852981687E-1,4.163516521E0,7.498939037E0
9.406500310E-1,-7.805097699E-1,4.110844135E0,7.491756439E0
9.426465310E-1,-7.398083210E-1,4.053383350E0,7.561188221E0
9.446434190E-1,-6.847416759E-1,3.971980572E0,7.656956196E0
9.466406190E-1,-6.105214357E-1,3.849876404E0,7.812579632E0
9.486381640E-1,-5.626373887E-1,3.756502390E0,7.951443195E0
9.506359140E-1,-5.243301988E-1,3.682282209E0,8.061576843E0
9.526338370E-1,-5.075707436E-1,3.627215624E0,8.162133217E0
9.546319080E-1,-5.075707436E-1,3.591302633E0,8.253112793E0
9.566303740E-1,-5.075707436E-1,3.562572241E0,8.324938774E0
9.586286860E-1,-5.243301988E-1,3.538630009E0,8.389581680E0
9.606286860E-1,-5.554547906E-1,3.533841610E0,8.444648743E0
9.626286860E-1,-6.153098345E-1,3.541024208E0,8.490138054E0
9.646286860E-1,-6.799532771E-1,3.567360640E0,8.521263123E0
9.666286860E-1,-7.924807668E-1,3.612850428E0,8.540416718E0
9.686286860E-1,-9.002198577E-1,3.658340216E0,8.554781914E0
9.706281400E-1,-1.003170490E0,3.703830004E0,8.564358711E0
9.726280960E-1,-1.122880578E0,3.756502390E0,8.571541786E0
9.746280540E-1,-1.249773264E0,3.816357613E0,8.571541786E0
9.766280140E-1,-1.381454349E0,3.881000996E0,8.561964989E0
9.786279750E-1,-1.496376038E0,3.938461781E0,8.549993515E0
9.806279370E-1,-1.608903527E0,3.995922565E0,8.533234596E0
9.826281150E-1,-1.704671621E0,4.048594952E0,8.514080048E0
9.846280800E-1,-1.788468719E0,4.108449936E0,8.487744331E0
9.866280460E-1,-1.805228114E0,4.204218388E0,8.315361977E0
9.886271460E-1,-1.802833915E0,4.285621166E0,8.147768021E0
9.906262460E-1,-1.783680320E0,4.355052948E0,7.980173588E0
9.926253120E-1,-1.745373011E0,4.412513733E0,7.812579632E0
9.946244120E-1,-1.714248419E0,4.460397720E0,7.678503990E0
9.966241780E-1,-1.690306425E0,4.498704910E0,7.570765018E0
9.986233110E-1,-1.671152830E0,4.527435303E0,7.484573841E0
1.000624211E0,-1.606509328E0,4.558559895E0,7.340921879E0
1.002625111E0,-1.529894829E0,4.587290287E0,7.187692642E0
1.004626044E0,-1.417367458E0,4.611232281E0,6.998550892E0
1.006626977E0,-1.271321058E0,4.637568474E0,6.783072472E0
1.008627677E0,-1.127668977E0,4.661510944E0,6.584353924E0
1.010628577E0,-9.624691010E-1,4.685452938E0,6.373664379E0
1.012629477E0,-7.709329724E-1,4.716577530E0,6.162974358E0
1.014630377E0,-5.889736414E-1,4.745307922E0,5.978621006E0
1.016631143E0,-3.495534360E-1,4.783615112E0,5.791872978E0
1.018632376E0,-1.221042871E-1,4.817133904E0,5.629067421E0
1.020632342E0,9.337386489E-2,4.845864296E0,5.487809658E0
1.022632308E0,3.399766386E-1,4.869806290E0,5.356128693E0
1.024632274E0,6.129156351E-1,4.884171486E0,5.236418247E0
1.026632240E0,1.091755986E0,4.817133904E0,5.281908035E0
1.028631340E0,1.498770237E0,4.750096321E0,5.344157696E0
1.030630840E0,1.845929503E0,4.683058739E0,5.420772076E0
1.032629973E0,2.145204782E0,4.618414879E0,5.509357452E0
1.034629106E0,2.384624958E0,4.568136692E0,5.581183434E0
1.036628206E0,2.576161146E0,4.527435303E0,5.638644218E0
1.038627339E0,2.729389906E0,4.493916512E0,5.684134007E0
1.040627339E0,2.868253708E0,4.458003521E0,5.751171589E0
1.042627139E0,2.995146275E0,4.419696331E0,5.875670433E0
1.044627139E0,3.088520288E0,4.381389141E0,6.057629585E0
1.046627139E0,3.145981073E0,4.355052948E0,6.297049522E0
1.048626139E0,3.179499865E0,4.340687752E0,6.543652534E0
1.050626639E0,3.186682463E0,4.340687752E0,6.857293129E0
1.052626972E0,3.177105665E0,4.350264549E0,7.170933247E0
1.054638722E0,3.141192675E0,4.374206543E0,7.549217224E0
1.056638722E0,3.088520288E0,4.414907932E0,7.977779388E0
1.058638888E0,3.016694069E0,4.465186119E0,8.437465668E0
1.060639030E0,2.947262287E0,4.513070107E0,8.861239433E0
1.062637655E0,2.870647907E0,4.568136692E0,9.311349869E0
1.064636432E0,2.798821688E0,4.623203278E0,9.768642426E0
1.066633732E0,2.715024710E0,4.656722069E0,1.044141293E1
1.068631277E0,2.647987127E0,4.685452938E0,1.098010826E1
1.070629027E0,2.595314741E0,4.707000732E0,1.141106415E1
1.072626950E0,2.554613113E0,4.714183331E0,1.177498341E1
1.074625021E0,2.528276920E0,4.709394932E0,1.207904720E1
1.076624421E0,2.506729126E0,4.704606533E0,1.232325554E1
1.078622733E0,2.499546528E0,4.692635536E0,1.252915668E1
1.080621144E0,2.501940727E0,4.673481941E0,1.270153904E1
1.082619977E0,2.533065319E0,4.642356873E0,1.284758568E1
1.084620819E0,2.578555346E0,4.611232281E0,1.296011353E1
1.086620869E0,2.638410330E0,4.558559895E0,1.301517963E1
1.088620869E0,2.703053713E0,4.508281708E0,1.303912163E1
1.090620914E0,2.798821688E0,4.448426723E0,1.299123764E1
1.092620957E0,2.892195702E0,4.390965939E0,1.291462326E1
1.094620998E0,2.995146275E0,4.326322556E0,1.277815342E1
1.096620558E0,3.098097086E0,4.264073372E0,1.258901215E1
1.098620558E0,3.184288263E0,4.209006786E0,1.240226364E1
1.100620558E0,3.258508444E0,4.158728123E0,1.217960358E1
1.102620558E0,3.318363667E0,4.115632534E0,1.193300056E1
1.104620558E0,3.361459255E0,4.082113743E0,1.170076275E1
1.106620558E0,3.272873640E0,4.096478939E0,1.121473980E1
1.108619724E0,3.203441858E0,4.108449936E0,1.082687950E1
1.110618824E0,3.129221678E0,4.120420933E0,1.049169159E1
1.112617924E0,3.045424461E0,4.134786129E0,1.019720459E1
1.114615490E0,2.978386879E0,4.146757126E0,9.962572098E0
1.116615356E0,2.925714493E0,4.156333923E0,9.775824547E0
1.118614422E0,2.856282711E0,4.168305397E0,9.601048470E0
1.120613488E0,2.777273893E0,4.185064793E0,9.433453560E0
1.122612954E0,2.691082716E0,4.204218388E0,9.275436401E0
1.124612420E0,2.588132143E0,4.230554581E0,9.095871925E0
1.126613286E0,2.489969730E0,4.264073372E0,8.894758224E0
1.128614219E0,2.396595955E0,4.302380562E0,8.684068680E0
1.130615152E0,2.315192938E0,4.338293552E0,8.492532730E0
1.132616085E0,2.240972757E0,4.381389141E0,8.296208382E0
1.134617018E0,2.181117773E0,4.424484730E0,8.092700958E0
1.136617351E0,2.126051188E0,4.469974518E0,7.891588211E0
1.138618284E0,2.078166962E0,4.510675907E0,7.712022781E0
1.140619217E0,2.037465572E0,4.548983097E0,7.532457829E0
1.142619950E0,2.006340981E0,4.577713490E0,7.372046471E0
1.144619416E0,1.982398987E0,4.589684486E0,7.209240437E0
1.146618982E0,1.929726601E0,4.496310711E0,6.998550892E0
1.148618115E0,1.886630893E0,4.402936935E0,6.826168537E0
1.150617181E0,1.850717902E0,4.311957359E0,6.682516098E0
1.152616247E0,1.821987510E0,4.240131378E0,6.567594528E0
1.154615313E0,1.800439715E0,4.182670593E0,6.476614952E0
1.156614779E0,1.778891921E0,4.120420933E0,6.397606373E0
1.158613879E0,1.762132406E0,4.070142746E0,6.335357189E0
1.160613012E0,1.747767210E0,4.012681961E0,6.280290127E0
1.162612145E0,1.731007814E0,3.952826977E0,6.232406139E0
1.164611311E0,1.714248419E0,3.869029999E0,6.186916351E0
1.166637311E0,1.702277422E0,3.770867586E0,6.146214962E0
1.168637311E0,1.699883223E0,3.672705412E0,6.115090370E0
1.170623811E0,1.704671621E0,3.531447411E0,6.103119373E0
1.172614811E0,1.719036818E0,3.347094059E0,6.103119373E0
1.174608061E0,1.735796213E0,3.165134668E0,6.110301971E0
1.176602461E0,1.759738207E0,2.952050686E0,6.129455566E0
1.178597794E0,1.786074519E0,2.765302896E0,6.148609161E0
1.180594651E0,1.817199111E0,2.597708941E0,6.162974358E0
1.182594526E0,1.853112102E0,2.425326347E0,6.177339554E0
1.184592081E0,1.903390408E0,2.236184359E0,6.201281548E0
1.186591981E0,2.025494576E0,1.958456993E0,6.206069946E0
1.188589526E0,2.130839586E0,1.731007814E0,6.203675747E0
1.190587276E0,2.214636564E0,1.549048543E0,6.203675747E0
1.192585199E0,2.291250944E0,1.398213744E0,6.194098949E0
1.194583270E0,2.363077164E0,1.271321058E0,6.174945354E0
1.196581603E0,2.420537949E0,1.168370485E0,6.160580158E0
1.198579915E0,2.466027737E0,1.086967587E0,6.148609161E0
1.200579973E0,2.516305923E0,1.015141487E0,6.129455566E0
1.202579917E0,2.578555346E0,9.481038451E-1,6.091148376E0
1.204579864E0,2.647987127E0,8.858546019E-1,6.031293392E0
1.206578814E0,2.724601507E0,8.355764151E-1,5.954679012E0
1.208578814E0,2.796427488E0,7.948749661E-1,5.880458832E0
1.210577859E0,2.865859509E0,7.637503147E-1,5.796661377E0
1.212576945E0,2.937685490E0,7.374141216E-1,5.705681801E0
1.214576903E0,3.002328873E0,7.110779285E-1,5.626673222E0
1.216576903E0,3.074155092E0,6.823474765E-1,5.550058842E0
1.218576903E0,3.153163671E0,6.512228847E-1,5.483021259E0
1.220576903E0,3.224989653E0,6.224924326E-1,5.427954674E0
1.222576867E0,3.296815634E0,5.913678408E-1,5.382464886E0
1.224576832E0,3.366247654E0,5.506663918E-1,5.351340294E0
1.226576798E0,3.483563423E0,4.620809257E-1,5.325003624E0
1.228575898E0,3.579331636E0,3.902548850E-1,5.303455830E0
1.230575898E0,3.663128614E0,3.280056417E-1,5.281908035E0
1.232575898E0,3.734954596E0,2.753331959E-1,5.260360241E0
1.234575898E0,3.792415380E0,2.322375625E-1,5.243600845E0
1.236576064E0,3.842693806E0,1.939303428E-1,5.224447250E0
1.238576097E0,3.883395195E0,1.628057212E-1,5.210082054E0
1.240576797E0,3.921702385E0,1.340752989E-1,5.193322659E0
1.242576830E0,3.964797974E0,1.029506698E-1,5.169380665E0
1.244577563E0,4.017470360E0,7.900865376E-2,5.138256073E0
1.246577596E0,4.079719543E0,6.224924326E-2,5.109525681E0
1.248578496E0,4.139574528E0,5.027823523E-2,5.083189487E0
1.250579396E0,4.213795185E0,5.267243832E-2,5.044882298E0
1.252581129E0,4.290409565E0,6.224924326E-2,5.001786709E0
1.254581295E0,4.374206543E0,8.619125932E-2,4.944325924E0
1.256582095E0,4.462791920E0,1.268926859E-1,4.879383087E0
1.258582661E0,4.539406300E0,1.699883193E-1,4.819528103E0
1.260582594E0,4.616020679E0,2.250549644E-1,4.757278919E0
1.262582594E0,4.692635536E0,2.873041928E-1,4.697423935E0
1.264582527E0,4.762067318E0,3.423708379E-1,4.647145271E0
1.266583193E0,4.836287498E0,4.022258818E-1,4.604049683E0
1.268582293E0,5.018546104E0,4.716577232E-1,4.560954094E0
1.270582093E0,5.176563263E0,5.243301988E-1,4.525041103E0
1.272581893E0,5.303455830E0,5.674257874E-1,4.496310711E0
1.274581026E0,5.418377876E0,5.985504389E-1,4.469974518E0
1.276580092E0,5.509357452E0,6.224924326E-1,4.448426723E0
1.278579825E0,5.583577633E0,6.416460276E-1,4.431667328E0
1.280579791E0,5.653009415E0,6.560112834E-1,4.414907932E0
1.282579791E0,5.729623795E0,6.631938815E-1,4.390965939E0
1.284579824E0,5.801449776E0,6.703764796E-1,4.371812344E0
1.286579824E0,5.875670433E0,6.703764796E-1,4.355052948E0
1.288593824E0,5.949890614E0,6.631938815E-1,4.343081951E0
1.290593824E0,6.014533997E0,6.536170840E-1,4.333505154E0
1.292593824E0,6.069600582E0,6.368576288E-1,4.333505154E0
1.294593824E0,6.112696171E0,6.129156351E-1,4.350264549E0
1.296593624E0,6.141426563E0,5.841852427E-1,4.383783340E0
1.298593624E0,6.162974358E0,5.506663918E-1,4.422090530E0
1.300593481E0,6.174945354E0,5.003881454E-1,4.484339714E0
1.302593356E0,6.182127953E0,4.357447028E-1,4.570530891E0
1.304593244E0,6.184522152E0,3.687070608E-1,4.659116745E0
1.306593144E0,6.179733753E0,2.849099934E-1,4.774038315E0
1.308590689E0,6.174945354E0,2.873042040E-2,5.102343082E0
1.310588439E0,6.167762756E0,-1.963245422E-1,5.399224281E0
1.312586362E0,6.158185959E0,-3.950432837E-1,5.674557209E0
1.314584433E0,6.151003361E0,-5.554547906E-1,5.894824028E0
1.316584766E0,6.146214962E0,-6.823474765E-1,6.069600582E0
1.318583078E0,6.141426563E0,-7.852981687E-1,6.210858345E0
1.320583078E0,6.124667168E0,-9.074024558E-1,6.395212173E0
1.322583078E0,6.105513573E0,-1.019929886E0,6.579565525E0
1.324583078E0,6.081571579E0,-1.137245774E0,6.807014942E0
1.326583078E0,6.060023785E0,-1.247379065E0,7.063194275E0
1.328583078E0,6.040870190E0,-1.352723956E0,7.343316078E0
1.330583078E0,6.026504993E0,-1.443703651E0,7.601889610E0
1.332583034E0,6.016928196E0,-1.522712231E0,7.872434616E0
1.334582992E0,6.012139797E0,-1.594538331E0,8.145373344E0
1.336582512E0,6.016928196E0,-1.651999116E0,8.415918350E0
1.338583281E0,6.021716595E0,-1.699883223E0,8.655338287E0
1.340583243E0,6.033687592E0,-1.735796213E0,8.894758224E0
1.342583207E0,6.045658588E0,-1.764526606E0,9.105448723E0
1.344583172E0,6.057629585E0,-1.778891921E0,9.299378395E0
1.346582238E0,6.081571579E0,-1.776497602E0,9.469367027E0
1.348580871E0,6.117484570E0,-1.754949808E0,9.608230591E0
1.350580837E0,6.155791759E0,-1.726219416E0,9.711181641E0
